time,seconds_elapsed,z,y,x
1761466491794135800,0.1421357421875,0.049122750759124756,0.09861177206039429,0.012904050759971142
1761466491804120800,0.152120849609375,0.05244957655668259,0.09745143353939056,0.013324297033250332
1761466491814104800,0.162104736328125,0.05605606734752655,0.0939728245139122,0.019222944974899292
1761466491824089900,0.17208984375,0.05714290589094162,0.08758629858493805,0.018953965976834297
1761466491834074600,0.18207470703125,0.05793546140193939,0.07641114294528961,0.014964018017053604
1761466491844059000,0.192058837890625,0.05684489756822586,0.0675143226981163,0.006372925825417042
1761466491854043600,0.202043701171875,0.05641409754753113,0.0656471848487854,0.003177936188876629
1761466491864027600,0.212027587890625,0.0542292445898056,0.07124994695186615,0.002356084529310465
1761466491874012700,0.2220126953125,0.052305251359939575,0.07025687396526337,0.0039593251422047615
1761466491883996700,0.23199658203125,0.054039500653743744,0.06503734737634659,0.0014940367545932531
1761466491893981700,0.241981689453125,0.05508813261985779,0.05407092720270157,-0.0013326805783435702
1761466491903965700,0.251965576171875,0.056153398007154465,0.04681514576077461,-0.004740728065371513
1761466491913950700,0.26195068359375,0.06013941019773483,0.03557945042848587,-0.010254591703414917
1761466491923934700,0.271934814453125,0.06009573116898537,0.028971882537007332,-0.0114173274487257
1761466491933919700,0.281919677734375,0.06302203238010406,0.03269457072019577,-0.006897330284118652
1761466491943903700,0.29190380859375,0.06487347185611725,0.036217931658029556,0.0007459416519850492
1761466491953888800,0.301888671875,0.06781824678182602,0.05182095617055893,0.00774089340120554
1761466491963873500,0.31187353515625,0.07899313420057297,0.0788017064332962,0.025619225576519966
1761466491973857500,0.321857421875,0.08815799653530121,0.11555897444486618,0.0517408661544323
1761466491983842800,0.3318427734375,0.09533947706222534,0.16090461611747742,0.07777273654937744
1761466491993826600,0.34182666015625,0.09623286128044128,0.2076987326145172,0.09136310964822769
1761466492003811800,0.351811767578125,0.09973891079425812,0.22577254474163055,0.09213303029537201
1761466492013795800,0.3617958984375,0.10195527970790863,0.2212633341550827,0.08420508354902267
1761466492023780900,0.37178076171875,0.10726562142372131,0.20105846226215363,0.06647615879774094
1761466492033764900,0.381764892578125,0.10993312299251556,0.16305232048034668,0.052927132695913315
1761466492043750000,0.39175,0.11056775599718094,0.13932569324970245,0.04640132188796997
1761466492053734000,0.40173388671875,0.10239052772521973,0.12435884773731232,0.04548323526978493
1761466492063719000,0.411718994140625,0.09925705194473267,0.11546068638563156,0.04554395377635956
1761466492073703700,0.42170361328125,0.08931739628314972,0.10351522266864777,0.04354161396622658
1761466492083687700,0.431687744140625,0.07287131249904633,0.09020660817623138,0.03981425240635872
1761466492093672700,0.441672607421875,0.055311061441898346,0.06164785847067833,0.04955524951219559
1761466492103656700,0.45165673828125,0.040724657475948334,0.018193859606981277,0.0640937089920044
1761466492113641700,0.461641845703125,0.03248649835586548,-0.007060109172016382,0.06854011118412018
1761466492123625700,0.471625732421875,0.013864611275494099,-0.0048446254804730415,0.08252330869436264
1761466492133610800,0.48161083984375,0.013923647813498974,0.014192077331244946,0.09482865035533905
1761466492143594800,0.4915947265625,0.011814957484602928,0.0447625033557415,0.08689296245574951
1761466492153579800,0.501579833984375,0.0036344255786389112,0.04372241348028183,0.06378693133592606
1761466492163563800,0.511563720703125,0.005652835126966238,0.05422964692115784,0.0757778137922287
1761466492173548800,0.521548828125,0.008481275290250778,0.07981882244348526,0.10073504596948624
1761466492183531800,0.53153173828125,0.0015290933661162853,0.10660835355520248,0.1276199221611023
1761466492193517000,0.54151708984375,0.017830610275268555,0.07866888493299484,0.18889234960079193
1761466492203501800,0.551501708984375,0.011750081554055214,0.04831843450665474,0.18958237767219543
1761466492213486000,0.561486083984375,0.0016122465021908283,0.013570161536335945,0.1676473170518875
1761466492223470800,0.571470947265625,-0.018871456384658813,-0.05449890345335007,0.1478501856327057
1761466492233454800,0.581454833984375,-0.02497120201587677,-0.15998247265815735,0.15804368257522583
1761466492243439900,0.59143994140625,-0.011531826108694077,-0.22345012426376343,0.15068750083446503
1761466492253423900,0.601423828125,-0.005860153120011091,-0.2531912326812744,0.14067429304122925
1761466492263409000,0.611408935546875,-0.01020376943051815,-0.27738499641418457,0.13970063626766205
1761466492273393000,0.621392822265625,-0.006789166480302811,-0.3079032897949219,0.1433192938566208
1761466492283378000,0.6313779296875,-0.0037536947056651115,-0.3428865671157837,0.14232300221920013
1761466492293362000,0.64136181640625,-0.012179838493466377,-0.331167995929718,0.1262829750776291
1761466492303347000,0.651346923828125,-0.015174562111496925,-0.29005199670791626,0.1054445281624794
1761466492313331000,0.6613310546875,-0.02605365216732025,-0.2105780392885208,0.07552935183048248
1761466492323316000,0.67131591796875,-0.038950808346271515,-0.11912773549556732,0.056702401489019394
1761466492333300700,0.68130078125,-0.04127540439367294,-0.0313282273709774,0.04785264655947685
1761466492343284700,0.69128466796875,-0.03590007871389389,0.02465434931218624,0.040095921605825424
1761466492353269800,0.701269775390625,-0.03189365938305855,0.04008149355649948,0.03990656137466431
1761466492363253800,0.711253662109375,-0.03635711967945099,0.01774556003510952,0.04580945521593094
1761466492373238800,0.72123876953125,-0.04544267803430557,-0.009270045906305313,0.04492077976465225
1761466492383222800,0.731222900390625,-0.04518008977174759,-0.02976972796022892,0.027008092030882835
1761466492393207800,0.741207763671875,-0.039785344153642654,-0.04653136804699898,0.009491966105997562
1761466492403191800,0.75119189453125,-0.02219356596469879,-0.06386828422546387,0.0001669074408710003
1761466492413176800,0.7611767578125,0.002489287406206131,-0.08343841880559921,0.000663920771330595
1761466492423160800,0.771160888671875,0.01938864216208458,-0.08895542472600937,0.01688390225172043
1761466492433145900,0.781145751953125,0.022282658144831657,-0.08296181261539459,0.03314882889389992
1761466492443129900,0.7911298828125,0.03254355117678642,-0.07654519379138947,0.04677702486515045
1761466492453114600,0.801114501953125,0.03155217692255974,-0.08645270764827728,0.05107428506016731
1761466492463100000,0.811099853515625,0.03226910158991814,-0.10748235881328583,0.054578740149736404
1761466492473084000,0.821083984375,0.04997564107179642,-0.11144457757472992,0.057090118527412415
1761466492483069000,0.83106884765625,0.06771229207515717,-0.07217759639024734,0.07738793641328812
1761466492493053000,0.841052978515625,0.08273126929998398,-0.03580844774842262,0.11061856895685196
1761466492503038000,0.851037841796875,0.07213988155126572,-0.028902068734169006,0.1485867202281952
1761466492513022000,0.86102197265625,0.05607915297150612,-0.06406591832637787,0.18131990730762482
1761466492523007000,0.871007080078125,0.035122208297252655,-0.13113656640052795,0.2013671100139618
1761466492532991000,0.880990966796875,0.014493115246295929,-0.22318075597286224,0.19180928170681
1761466492542976000,0.89097607421875,0.01022619754076004,-0.3533611297607422,0.1638261079788208
1761466492552960000,0.9009599609375,0.00017807213589549065,-0.4832029938697815,0.11164921522140503
1761466492562944800,0.91094482421875,-0.012323073111474514,-0.5144640207290649,0.06275224685668945
1761466492572929000,0.920928955078125,-0.038647763431072235,-0.4035835564136505,0.028117019683122635
1761466492582913800,0.930913818359375,-0.06559815257787704,-0.24037359654903412,0.008001897484064102
1761466492592898800,0.94089892578125,-0.0936921238899231,-0.12641815841197968,0.025854727253317833
1761466492602882800,0.9508828125,-0.11105593293905258,-0.04944508150219917,0.06289956718683243
1761466492612867800,0.960867919921875,-0.11980143189430237,-0.011535601690411568,0.0994146391749382
1761466492622851800,0.970851806640625,-0.14204229414463043,-0.02496086247265339,0.11570040881633759
1761466492632836900,0.9808369140625,-0.1689346879720688,-0.05532381683588028,0.10897886008024216
1761466492642820900,0.99082080078125,-0.17360612750053406,-0.09533035755157471,0.07556178420782089
1761466492652806000,1.000805908203125,-0.1694124937057495,-0.14882023632526398,0.028209969401359558
1761466492662790000,1.010789794921875,-0.1650795340538025,-0.20149436593055725,-0.02118208073079586
1761466492672775000,1.02077490234375,-0.16781005263328552,-0.23287300765514374,-0.07039700448513031
1761466492682759000,1.030759033203125,-0.17452947795391083,-0.23935088515281677,-0.09840334206819534
1761466492692743700,1.04074365234375,-0.17518794536590576,-0.21868877112865448,-0.10325989127159119
1761466492702727700,1.050727783203125,-0.1812642216682434,-0.1784028559923172,-0.09279845654964447
1761466492712712700,1.060712646484375,-0.18725936114788055,-0.13719411194324493,-0.0850406289100647
1761466492722696700,1.07069677734375,-0.18140201270580292,-0.10107871890068054,-0.06982865184545517
1761466492732681700,1.080681640625,-0.1743021458387375,-0.06705901771783829,-0.05945754051208496
1761466492742667000,1.0906669921875,-0.15788136422634125,-0.03572479262948036,-0.06259927153587341
1761466492752651000,1.100651123046875,-0.14007119834423065,-0.01480106171220541,-0.0793909803032875
1761466492762636000,1.110635986328125,-0.1250842660665512,-0.02578207291662693,-0.1083613783121109
1761466492772620000,1.1206201171875,-0.10773827880620956,-0.03717757761478424,-0.13389530777931213
1761466492782605000,1.13060498046875,-0.09349009394645691,-0.05611851066350937,-0.15282106399536133
1761466492792589000,1.140589111328125,-0.0830768495798111,-0.06753657758235931,-0.1686258614063263
1761466492802573800,1.15057373046875,-0.08071968704462051,-0.05488629266619682,-0.17778287827968597
1761466492812557800,1.160557861328125,-0.07042517513036728,-0.023932186886668205,-0.1994866281747818
1761466492822542800,1.17054296875,-0.05414554476737976,-0.04039638116955757,-0.17456768453121185
1761466492832526800,1.18052685546875,-0.04702875390648842,-0.05862194672226906,-0.15127167105674744
1761466492842512000,1.190511962890625,-0.03696839511394501,-0.03413977473974228,-0.1301719844341278
1761466492852496000,1.200495849609375,-0.040152717381715775,-0.0032467960845679045,-0.1086600050330162
1761466492862481000,1.21048095703125,-0.057790301740169525,-0.00040999683551490307,-0.09059205651283264
1761466492872466000,1.2204658203125,-0.05036577582359314,-0.005824136082082987,-0.08149705827236176
1761466492882450000,1.230449951171875,-0.032808348536491394,-0.01260108221322298,-0.08281958103179932
1761466492892435000,1.24043505859375,-0.012959485873579979,-0.011606136336922646,-0.07550441473722458
1761466492902419000,1.2504189453125,0.0023265264462679625,-0.015414989553391933,-0.060385383665561676
1761466492912403700,1.26040380859375,0.01449838001281023,-0.019809521734714508,-0.04568582773208618
1761466492922387700,1.2703876953125,0.020569588989019394,-0.013476524502038956,-0.031031517311930656
1761466492932372700,1.280372802734375,0.02452077902853489,-0.0068372138775885105,-0.01989894174039364
1761466492942356700,1.290356689453125,0.024497343227267265,0.011827018111944199,-0.022540798410773277
1761466492952341800,1.300341796875,0.025664543733000755,0.014880536124110222,-0.030455749481916428
1761466492962325800,1.31032568359375,0.02478410117328167,0.008549670688807964,-0.02974468655884266
1761466492972310800,1.320310791015625,0.023762758821249008,0.005608769599348307,-0.021596994251012802
1761466492982294800,1.330294677734375,0.023093242198228836,0.009311627596616745,-0.00444783503189683
1761466492992279800,1.34027978515625,0.032692089676856995,0.023152582347393036,0.01699831895530224
1761466493002265000,1.35026513671875,0.04315085709095001,0.030665893107652664,0.039246365427970886
1761466493012248800,1.360248779296875,0.044863924384117126,0.03991422802209854,0.05513850226998329
1761466493022233900,1.37023388671875,0.04312807694077492,0.051605504006147385,0.053651127964258194
1761466493032217900,1.3802177734375,0.04528278112411499,0.057347096502780914,0.046787142753601074
1761466493042203000,1.390202880859375,0.038257893174886703,0.05974287539720535,0.024769725278019905
1761466493052187000,1.400186767578125,0.029012955725193024,0.05330539867281914,0.008014396764338017
1761466493062172000,1.410171875,0.022871706634759903,0.033905334770679474,-0.0068902503699064255
1761466493072156000,1.420156005859375,0.0059306020848453045,0.014299469068646431,-0.019181236624717712
1761466493082141000,1.430140869140625,-0.0020495597273111343,0.004285183735191822,-0.031359873712062836
1761466493092125000,1.440125,-0.009982951916754246,0.0006374465301632881,-0.041122760623693466
1761466493102110000,1.45010986328125,-0.009813576005399227,0.0068945433013141155,-0.04751994088292122
1761466493112094000,1.460093994140625,-0.005065957084298134,0.020143043249845505,-0.048632558435201645
1761466493122079000,1.470078857421875,0.0006888671778142452,0.0313568152487278,-0.057840172201395035
1761466493132063000,1.48006298828125,0.008562338538467884,0.05006180331110954,-0.057173311710357666
1761466493142048000,1.490048095703125,0.014777092263102531,0.06383246928453445,-0.04504714161157608
1761466493152032800,1.50003271484375,0.02083645574748516,0.08324786275625229,-0.030172664672136307
1761466493162016800,1.510016845703125,0.02088892087340355,0.10727037489414215,-0.014489575289189816
1761466493172001800,1.520001708984375,0.027487128973007202,0.12932220101356506,-0.008460679091513157
1761466493181986300,1.529986328125,0.03160996735095978,0.12762923538684845,0.0010758342687040567
1761466493191971300,1.539971435546875,0.03664741665124893,0.11266302317380905,-0.002629444468766451
1761466493201955300,1.549955322265625,0.045705363154411316,0.1079108789563179,-0.0037564942613244057
1761466493211940400,1.5599404296875,0.05157093703746796,0.10020560771226883,-0.0055335890501737595
1761466493221924400,1.56992431640625,0.06439006328582764,0.11050618439912796,-0.008965604938566685
1761466493231909400,1.579909423828125,0.07447387278079987,0.12787742912769318,-0.013628283515572548
1761466493241893400,1.589893310546875,0.08575156331062317,0.13837800920009613,-0.01720064878463745
1761466493251878100,1.599878173828125,0.08820955455303192,0.12937644124031067,-0.016910137608647346
1761466493261863200,1.60986328125,0.09160854667425156,0.12788134813308716,-0.00626734783872962
1761466493271847200,1.61984716796875,0.09161237627267838,0.12796983122825623,0.006906019989401102
1761466493281832200,1.629832275390625,0.08480747044086456,0.1158955991268158,0.01741272397339344
1761466493291816200,1.639816162109375,0.08178085088729858,0.1202320083975792,0.026009399443864822
1761466493301801200,1.64980126953125,0.08421365171670914,0.1341656595468521,0.039458099752664566
1761466493311785200,1.65978515625,0.0863000825047493,0.15255975723266602,0.053957365453243256
1761466493321770200,1.669770263671875,0.0840262770652771,0.19130448997020721,0.06663480401039124
1761466493331754200,1.679754150390625,0.08002152293920517,0.22014953196048737,0.07922015339136124
1761466493341739300,1.6897392578125,0.07983456552028656,0.2220158725976944,0.082899309694767
1761466493351723300,1.69972314453125,0.08644948899745941,0.20788973569869995,0.08045829087495804
1761466493361708300,1.709708251953125,0.09593327343463898,0.20125366747379303,0.06765034794807434
1761466493371692300,1.7196923828125,0.11606676876544952,0.2040698230266571,0.057021062821149826
1761466493381677000,1.729677001953125,0.12743234634399414,0.20396995544433594,0.05165133252739906
1761466493391661000,1.7396611328125,0.12873123586177826,0.2026052176952362,0.058044854551553726
1761466493401646000,1.74964599609375,0.12045758962631226,0.20796802639961243,0.06203533709049225
1761466493411630000,1.759630126953125,0.10714151710271835,0.20634989440441132,0.07273778319358826
1761466493421615000,1.769614990234375,0.09878318756818771,0.20465852320194244,0.07766116410493851
1761466493431600400,1.779600341796875,0.09099532663822174,0.19578289985656738,0.07630422711372375
1761466493441584400,1.78958447265625,0.08137065917253494,0.18754227459430695,0.0679893046617508
1761466493451569400,1.7995693359375,0.08170562982559204,0.17863063514232635,0.056201670318841934
1761466493461553400,1.809553466796875,0.07533108443021774,0.1654362678527832,0.04550641402602196
1761466493471538400,1.819538330078125,0.07015269249677658,0.15027140080928802,0.039450906217098236
1761466493481522400,1.8295224609375,0.06845279783010483,0.13566049933433533,0.03460182249546051
1761466493491507200,1.839507080078125,0.06556815654039383,0.12169089168310165,0.032590873539447784
1761466493501491200,1.8494912109375,0.06696179509162903,0.11255864799022675,0.03022332303225994
1761466493511476200,1.859476318359375,0.060326918959617615,0.10377399623394012,0.02825288102030754
1761466493521460200,1.869460205078125,0.05495239049196243,0.09572140127420425,0.022035732865333557
1761466493531445200,1.8794453125,0.0471535250544548,0.0819772258400917,0.02061139978468418
1761466493541429200,1.88942919921875,0.03654375672340393,0.058974701911211014,0.008455665782094002
1761466493551414300,1.899414306640625,0.03714137524366379,0.0538812093436718,-0.004803642630577087
1761466493561399300,1.9093994140625,0.0326337069272995,0.04629439860582352,-0.014046410098671913
1761466493571383300,1.91938330078125,0.030131198465824127,0.04117240011692047,-0.013055942952632904
1761466493581368300,1.929368408203125,0.02684352546930313,0.05226287245750427,-0.0032113015186041594
1761466493591352300,1.939352294921875,0.020055824890732765,0.06996622681617737,0.0014526890590786934
1761466493601337000,1.949337158203125,0.013295390643179417,0.0759921595454216,0.010506637394428253
1761466493611321000,1.959321044921875,0.0014554462395608425,0.07007775455713272,0.010180097073316574
1761466493621306000,1.96930615234375,-0.007422467228025198,0.07094833999872208,0.0018289568834006786
1761466493631290000,1.9792900390625,-0.020791905000805855,0.08812358975410461,-0.006700086407363415
1761466493641275100,1.989275146484375,-0.03303259611129761,0.11008721590042114,-0.00835790392011404
1761466493651259100,1.999259033203125,-0.04415794461965561,0.12351948022842407,-0.0011683906195685267
1761466493661244200,2.009244140625,-0.03975760191679001,0.11097705364227295,0.01007174700498581
1761466493671228200,2.019228271484375,-0.02721092291176319,0.10331772267818451,0.02344583161175251
1761466493681213200,2.029213134765625,-0.015377432107925415,0.09548377245664597,0.02446289174258709
1761466493691198500,2.039198486328125,-0.008800223469734192,0.0775899887084961,0.019126450642943382
1761466493701182200,2.04918212890625,-0.014010164886713028,0.06381159275770187,0.01068795844912529
1761466493711167200,2.059167236328125,-0.01857953518629074,0.04967636615037918,0.0036092959344387054
1761466493721151200,2.069151123046875,-0.02543078362941742,0.03895368054509163,0.001024165190756321
1761466493731136300,2.07913623046875,-0.02369515970349312,0.020804716274142265,-0.000007041729986667633
1761466493741120300,2.089120361328125,-0.025127941742539406,0.006320583168417215,0.00825301930308342
1761466493751105300,2.099105224609375,-0.019212791696190834,-0.007940839976072311,0.010303693823516369
1761466493761089300,2.10908935546875,-0.019626114517450333,-0.023075049743056297,0.011339397169649601
1761466493771074300,2.11907421875,-0.025508422404527664,-0.023451853543519974,0.0117825698107481
1761466493781058300,2.129058349609375,-0.028343359008431435,-0.017518330365419388,0.013696849346160889
1761466493791043300,2.139043212890625,-0.02726897783577442,-0.014449316076934338,0.011991353705525398
1761466493801027300,2.14902734375,-0.02761332504451275,-0.01630287617444992,0.017265478149056435
1761466493811012400,2.159012451171875,-0.02668316662311554,-0.018832985311746597,0.023067645728588104
1761466493820997000,2.1689970703125,-0.024124402552843094,-0.028255514800548553,0.024259943515062332
1761466493830981400,2.1789814453125,-0.024226706475019455,-0.036495812237262726,0.015929073095321655
1761466493840966100,2.188966064453125,-0.026325009763240814,-0.04475853592157364,0.010420589707791805
1761466493850950100,2.1989501953125,-0.02746635675430298,-0.039186105132102966,0.012959135696291924
1761466493860935200,2.20893505859375,-0.027530808001756668,-0.03217533230781555,0.022368349134922028
1761466493870919200,2.218919189453125,-0.026234563440084457,-0.01642536371946335,0.03152165561914444
1761466493880904200,2.228904296875,-0.029311582446098328,0.01425345242023468,0.044486723840236664
1761466493890888200,2.23888818359375,-0.03370608389377594,0.02473035827279091,0.053267449140548706
1761466493900873200,2.248873291015625,-0.04015492647886276,0.02774345874786377,0.051041316241025925
1761466493910857200,2.258857177734375,-0.0414561927318573,0.014728231355547905,0.04267946258187294
1761466493920842200,2.26884228515625,-0.04186312109231949,-0.0013980076182633638,0.025027234107255936
1761466493930826200,2.278826171875,-0.04525900259613991,-0.017711766064167023,0.008104955777525902
1761466493940811300,2.288811279296875,-0.05326792597770691,-0.02845815382897854,-0.00039159320294857025
1761466493950796000,2.298796142578125,-0.06015121564269066,-0.04715955629944801,-0.00776981096714735
1761466493960780000,2.308780029296875,-0.05746035650372505,-0.06988431513309479,-0.010692098177969456
1761466493970765300,2.318765380859375,-0.05315273255109787,-0.09159921109676361,-0.01186283491551876
1761466493980749000,2.3287490234375,-0.0504554808139801,-0.09681261330842972,-0.019821692258119583
1761466493990734300,2.338734375,-0.045868292450904846,-0.09502457827329636,-0.02318127267062664
1761466494000718300,2.34871826171875,-0.04262562096118927,-0.0985034629702568,-0.02372482419013977
1761466494010703400,2.358703369140625,-0.043877679854631424,-0.09272681176662445,-0.024972518905997276
1761466494020687400,2.368687255859375,-0.047798383980989456,-0.08651977777481079,-0.025389837101101875
1761466494030672400,2.37867236328125,-0.0485176257789135,-0.0779993012547493,-0.02420928329229355
1761466494040656400,2.388656494140625,-0.04608003422617912,-0.07937055826187134,-0.02055196464061737
1761466494050641400,2.398641357421875,-0.042619090527296066,-0.0862327367067337,-0.015076241455972195
1761466494060625400,2.40862548828125,-0.04004248231649399,-0.09047514945268631,-0.007477443665266037
1761466494070610200,2.418610107421875,-0.03809130936861038,-0.08214429765939713,-0.005597280338406563
1761466494080595200,2.42859521484375,-0.03290054202079773,-0.08495419472455978,-0.0051139164716005325
1761466494090579200,2.4385791015625,-0.030946701765060425,-0.08678476512432098,-0.008953073062002659
1761466494100564200,2.448564208984375,-0.02821003645658493,-0.0829727053642273,-0.012925976887345314
1761466494110548200,2.45854833984375,-0.028262069448828697,-0.06705126911401749,-0.008746415376663208
1761466494120533200,2.468533203125,-0.029892990365624428,-0.05987325310707092,0.004288426600396633
1761466494130517200,2.478517333984375,-0.03629731759428978,-0.052330899983644485,0.01074101123958826
1761466494140502300,2.488502197265625,-0.04773825779557228,-0.056786369532346725,0.010730358771979809
1761466494150486300,2.498486328125,-0.05022135004401207,-0.06053688004612923,0.004637323319911957
1761466494160471300,2.50847119140625,-0.04545455798506737,-0.055777277797460556,-0.000582205830141902
1761466494170455300,2.518455322265625,-0.04031459614634514,-0.04017656669020653,0.003583456389605999
1761466494180440800,2.52844091796875,-0.03105425089597702,-0.029741236940026283,0.01728329062461853
1761466494190424800,2.5384248046875,-0.02986682765185833,-0.020189771428704262,0.028372716158628464
1761466494200409900,2.548409912109375,-0.035256534814834595,-0.018952466547489166,0.034072145819664
1761466494210395100,2.55839501953125,-0.044764019548892975,-0.006327823735773563,0.04377160593867302
1761466494220379000,2.56837890625,-0.05083629488945007,0.0029543577693402767,0.06289976090192795
1761466494230364200,2.5783642578125,-0.05983607843518257,0.01515917107462883,0.0909157246351242
1761466494240348200,2.58834814453125,-0.07007407397031784,0.019590137526392937,0.11734946072101593
1761466494250333200,2.598333251953125,-0.08395616710186005,0.028821107000112534,0.1284918189048767
1761466494260317200,2.608317138671875,-0.08961325138807297,0.027205368503928185,0.1394864022731781
1761466494270302000,2.618302001953125,-0.08761651068925858,0.00983470119535923,0.13570663332939148
1761466494280286000,2.628285888671875,-0.07967550307512283,-0.01580328494310379,0.12497967481613159
1761466494290271000,2.63827099609375,-0.07975822687149048,-0.03727653622627258,0.10734853893518448
1761466494300255000,2.6482548828125,-0.07374826073646545,-0.029727008193731308,0.10045254975557327
1761466494310240000,2.658239990234375,-0.07105699926614761,-0.026651715859770775,0.10217820107936859
1761466494320225000,2.66822509765625,-0.07421231269836426,-0.02308068238198757,0.10560035705566406
1761466494330209000,2.678208984375,-0.07326172292232513,-0.041326720267534256,0.1053127869963646
1761466494340194000,2.688194091796875,-0.07187448441982269,-0.061662882566452026,0.08783872425556183
1761466494350178000,2.698177978515625,-0.058840587735176086,-0.08525444567203522,0.07023952901363373
1761466494360163000,2.7081630859375,-0.04623238742351532,-0.10335648059844971,0.05281286686658859
1761466494370147000,2.71814697265625,-0.04265377297997475,-0.12319473177194595,0.04870327562093735
1761466494380131800,2.7281318359375,-0.04369639977812767,-0.13199594616889954,0.05357925966382027
1761466494390116000,2.7381162109375,-0.0401579812169075,-0.12931084632873535,0.06042657792568207
1761466494400100900,2.748100830078125,-0.03636776655912399,-0.11648879945278168,0.06763282418251038
1761466494410084900,2.7580849609375,-0.034239739179611206,-0.10559487342834473,0.07094819098711014
1761466494420070000,2.76806982421875,-0.03442962467670441,-0.09388282895088196,0.06319812685251236
1761466494430054000,2.778053955078125,-0.037675995379686356,-0.09128033369779587,0.06203329563140869
1761466494440039000,2.788038818359375,-0.04160815477371216,-0.07108025997877121,0.06329935789108276
1761466494450024000,2.79802392578125,-0.03623367100954056,-0.07989552617073059,0.06453298777341843
1761466494460008000,2.808008056640625,-0.04155600070953369,-0.08535740524530411,0.056930191814899445
1761466494469993000,2.817992919921875,-0.0486733578145504,-0.0822443813085556,0.05382212623953819
1761466494479977000,2.82797705078125,-0.05101081356406212,-0.06803961843252182,0.05904512107372284
1761466494489962000,2.8379619140625,-0.0536184161901474,-0.06426931172609329,0.06173123046755791
1761466494499946000,2.847946044921875,-0.05662379413843155,-0.06469275802373886,0.06801628321409225
1761466494509931000,2.857930908203125,-0.05697141960263252,-0.06760754436254501,0.07279855012893677
1761466494519915000,2.8679150390625,-0.06363570690155029,-0.06981610506772995,0.0806058794260025
1761466494529900000,2.877900146484375,-0.06331297755241394,-0.06256167590618134,0.07519911974668503
1761466494539884000,2.887884033203125,-0.05815363675355911,-0.06461124122142792,0.06502584367990494
1761466494549869000,2.897869140625,-0.05546410754323006,-0.06728018820285797,0.04790283739566803
1761466494559854000,2.90785400390625,-0.04732069373130798,-0.06786421686410904,0.031877800822257996
1761466494569838000,2.917838134765625,-0.04351663589477539,-0.06694896519184113,0.015593043528497219
1761466494579823000,2.927822998046875,-0.03945797681808472,-0.07507586479187012,-0.0011976544046774507
1761466494589807000,2.93780712890625,-0.03812365233898163,-0.07606305927038193,-0.009011343121528625
1761466494599792000,2.947792236328125,-0.0392104908823967,-0.0764838382601738,-0.015069768764078617
1761466494609776000,2.957776123046875,-0.03893796727061272,-0.07642601430416107,-0.01961362548172474
1761466494619761000,2.967760986328125,-0.037669237703084946,-0.07337243854999542,-0.026941047981381416
1761466494629745000,2.977744873046875,-0.034921180456876755,-0.07000014185905457,-0.02605879120528698
1761466494639730000,2.98772998046875,-0.03194509819149971,-0.05839941278100014,-0.021032873541116714
1761466494649714000,2.9977138671875,-0.0322839617729187,-0.044409409165382385,-0.005852203816175461
1761466494659699000,3.007698974609375,-0.024468112736940384,-0.03313731029629707,0.02056555636227131
1761466494669684000,3.01768408203125,-0.02410782501101494,-0.03147825971245766,0.050371043384075165
1761466494679668000,3.02766796875,-0.01917565055191517,-0.028706442564725876,0.07656349241733551
1761466494689653000,3.037653076171875,-0.01986723393201828,-0.017160557210445404,0.0964360162615776
1761466494699637000,3.047636962890625,-0.016723107546567917,-0.009965494275093079,0.10664204508066177
1761466494709622000,3.0576220703125,-0.012785190716385841,-0.004322339314967394,0.10227680206298828
1761466494719606000,3.06760595703125,-0.01561027206480503,-0.015572863630950451,0.08866165578365326
1761466494729590800,3.0775908203125,-0.0167754665017128,-0.01822695881128311,0.07028159499168396
1761466494739574800,3.08757470703125,-0.019474580883979797,-0.03350524604320526,0.053397148847579956
1761466494749559800,3.097559814453125,-0.020292747765779495,-0.04730294272303581,0.04512042552232742
1761466494759545000,3.107545166015625,-0.02025865763425827,-0.04222109913825989,0.040306493639945984
1761466494769529000,3.117529052734375,-0.02239668183028698,-0.023988399654626846,0.026989011093974113
1761466494779514000,3.12751416015625,-0.019014202058315277,-0.013730701990425587,0.012630844488739967
1761466494789498000,3.137498046875,-0.013070108368992805,-0.016364336013793945,0.009418247267603874
1761466494799483100,3.147483154296875,-0.01460115984082222,-0.019970789551734924,0.01732517220079899
1761466494809467100,3.157467041015625,-0.021048016846179962,-0.025910384953022003,0.024275261908769608
1761466494819452200,3.1674521484375,-0.020902343094348907,-0.018509993329644203,0.03204769641160965
1761466494829436200,3.177436279296875,-0.02401859126985073,-0.01275246124714613,0.035410504788160324
1761466494839421000,3.1874208984375,-0.030187804251909256,-0.01434902660548687,0.03546509891748428
1761466494849405000,3.197405029296875,-0.03759991377592087,-0.017019111663103104,0.03194866329431534
1761466494859390000,3.207389892578125,-0.03694717213511467,-0.007836532779037952,0.02798081934452057
1761466494869375000,3.217375,-0.031887393444776535,-0.009592682123184204,0.026142925024032593
1761466494879359000,3.22735888671875,-0.023138372227549553,-0.00839905347675085,0.01865278370678425
1761466494889344000,3.237343994140625,-0.014389542862772942,0.001732180593535304,0.007708817720413208
1761466494899328000,3.247327880859375,-0.01154821552336216,0.014594449661672115,-0.0034961660858243704
1761466494909313000,3.25731298828125,-0.0005985256284475327,0.014493787661194801,-0.012534930370748043
1761466494919297000,3.267297119140625,-0.0038904594257473946,0.004449410364031792,-0.019739314913749695
1761466494929282000,3.277281982421875,-0.0006893696263432503,-0.004467453807592392,-0.018925808370113373
1761466494939266000,3.28726611328125,-0.00456666573882103,0.0009896294213831425,-0.015814702957868576
1761466494949250800,3.297250732421875,-0.010804724879562855,0.0015186883974820375,-0.005038591101765633
1761466494959235800,3.30723583984375,-0.014743807725608349,0.0046103522181510925,-0.0017157651018351316
1761466494969219800,3.3172197265625,-0.01347648911178112,0.008418368175625801,0.000985979102551937
1761466494979204900,3.327204833984375,-0.009662576019763947,0.015079733915627003,0.005577801261097193
1761466494989188900,3.33718896484375,-0.010274035856127739,0.005561515688896179,0.0025755558162927628
1761466494999174000,3.347173828125,-0.006830035243183374,0.00026581971906125546,-0.00488928472623229
1761466495009158000,3.357157958984375,-0.008632156066596508,-0.008250152692198753,-0.008424882777035236
1761466495019143200,3.36714306640625,-0.014879132620990276,-0.020538777112960815,-0.009602266363799572
1761466495029127000,3.377126953125,-0.020031658932566643,-0.028733698651194572,-0.0099406186491251
1761466495039112200,3.3871123046875,-0.022753676399588585,-0.0253504179418087,-0.0020547329913824797
1761466495049097000,3.397096923828125,-0.02671864628791809,-0.0264456607401371,-0.0005925216246396303
1761466495059081000,3.4070810546875,-0.03147558495402336,-0.02915063314139843,-0.0038000326603651047
1761466495069066000,3.41706591796875,-0.03523906320333481,-0.02539362572133541,-0.0037634752225130796
1761466495079050000,3.427050048828125,-0.037873730063438416,-0.02539655566215515,-0.011440036818385124
1761466495089035000,3.437034912109375,-0.044866058975458145,-0.03561173379421234,-0.006669327616691589
1761466495099019000,3.44701904296875,-0.03460942581295967,-0.02357318252325058,-0.007687986828386784
1761466495109004000,3.457004150390625,-0.018678152933716774,-0.030686454847455025,-0.010918642394244671
1761466495118989000,3.466989013671875,-0.010734742507338524,-0.03889245167374611,-0.017776016145944595
1761466495128973000,3.47697314453125,-0.0051092663779854774,-0.0408405177295208,-0.0165791604667902
1761466495138958000,3.4869580078125,0.0035316254943609238,-0.042331621050834656,-0.011697852984070778
1761466495148942000,3.496942138671875,-0.00260044913738966,-0.05862291902303696,-0.009152086451649666
1761466495158926800,3.5069267578125,-0.002269151620566845,-0.03449574485421181,-0.0013160018716007471
1761466495168911000,3.5169111328125,-0.001486075110733509,-0.02322433888912201,-0.00045885914005339146
1761466495178895400,3.526895263671875,-0.009320562705397606,-0.02371009811758995,-0.007927960716187954
1761466495188879400,3.53687939453125,-0.012409955263137817,-0.030936747789382935,-0.01632295921444893
1761466495198864400,3.546864501953125,-0.017023082822561264,-0.03257938474416733,-0.024601129814982414
1761466495208849400,3.556849365234375,-0.008578446693718433,-0.01561766117811203,-0.03452135995030403
1761466495218833400,3.56683349609375,-0.0038803638890385628,-0.019185498356819153,-0.04661024734377861
1761466495228818400,3.576818359375,-0.0035220165736973286,-0.01839357241988182,-0.0497579388320446
1761466495238802400,3.586802490234375,0.0031137822661548853,0.0013875879812985659,-0.04318073019385338
1761466495248787500,3.596787353515625,0.006387390661984682,0.02202426828444004,-0.0334496907889843
1761466495258771500,3.606771484375,0.010798118077218533,0.025194229558110237,-0.025505749508738518
1761466495268756500,3.616756591796875,0.014187421649694443,0.023462101817131042,-0.026419751346111298
1761466495278740500,3.626740478515625,0.011125851422548294,0.0229174867272377,-0.02961660921573639
1761466495288725500,3.6367255859375,0.009834972210228443,0.027499254792928696,-0.03644462674856186
1761466495298710300,3.646710205078125,0.01051248051226139,0.02691788598895073,-0.03981538861989975
1761466495308694300,3.6566943359375,0.01058928668498993,0.029165515676140785,-0.047420650720596313
1761466495318679300,3.66667919921875,0.009851857088506222,0.038983527570962906,-0.04840522259473801
1761466495328663300,3.676663330078125,0.018925372511148453,0.0540013313293457,-0.04047888144850731
1761466495338648300,3.6866484375,0.018813518807291985,0.06024245172739029,-0.028523681685328484
1761466495348632300,3.69663232421875,0.013102099299430847,0.05712956190109253,-0.021135997027158737
1761466495358617300,3.706617431640625,0.008066860027611256,0.048505183309316635,-0.016374798491597176
1761466495368601300,3.716601318359375,0.009138556197285652,0.047826364636421204,-0.009116066619753838
1761466495378586400,3.72658642578125,0.016634289175271988,0.05220380425453186,-0.0034001243766397238
1761466495388571100,3.736571044921875,0.014331560581922531,0.057028040289878845,-0.0025234846398234367
1761466495398555400,3.746555419921875,0.015089229680597782,0.0586690790951252,0.0033210888504981995
1761466495408540200,3.7565400390625,0.01461639441549778,0.04959278926253319,0.00795208290219307
1761466495418524200,3.766524169921875,0.01298946887254715,0.038365963846445084,0.014833691529929638
1761466495428509400,3.776509521484375,0.00884879007935524,0.03789263591170311,0.025332864373922348
1761466495438493200,3.7864931640625,0.0005706199444830418,0.03796161338686943,0.030240803956985474
1761466495448478500,3.796478515625,-0.0028919451870024204,0.02322220429778099,0.02681182697415352
1761466495458463500,3.80646337890625,-0.012523267418146133,0.021018970757722855,0.016857730224728584
1761466495468447500,3.816447509765625,-0.012998368591070175,0.023692086338996887,0.019488520920276642
1761466495478432500,3.8264326171875,-0.021354569122195244,0.02171788550913334,0.019224336370825768
1761466495488416500,3.83641650390625,-0.023037176579236984,0.011121997609734535,0.018558304756879807
1761466495498401300,3.8464013671875,-0.02337167039513588,0.002420118311420083,0.016670124605298042
1761466495508385500,3.856385498046875,-0.022633075714111328,-0.0030075814574956894,0.010465568862855434
1761466495518370300,3.866370361328125,-0.024044284597039223,-0.00875681359320879,0.010420294478535652
1761466495528355300,3.876355224609375,-0.025392580777406693,-0.012946510687470436,0.009186706505715847
1761466495538339300,3.88633935546875,-0.033951178193092346,-0.02518080733716488,0.00941493920981884
1761466495548324400,3.896324462890625,-0.037451133131980896,-0.03925531357526779,0.00002759275957942009
1761466495558308400,3.906308349609375,-0.0380503386259079,-0.05037454515695572,-0.009553128853440285
1761466495568293400,3.91629345703125,-0.04211117699742317,-0.04901573434472084,-0.014046884141862392
1761466495578277400,3.92627734375,-0.04349175840616226,-0.04226648434996605,-0.009741883724927902
1761466495588262400,3.936262451171875,-0.04319223016500473,-0.040367692708969116,-0.003135685110464692
1761466495598247200,3.9462470703125,-0.04703810065984726,-0.03291429951786995,-0.0046353111974895
1761466495608231400,3.9562314453125,-0.04432128369808197,-0.034041110426187515,-0.008947793394327164
1761466495618216200,3.96621630859375,-0.04768725484609604,-0.035237669944763184,-0.018996166065335274
1761466495628200200,3.9762001953125,-0.051958125084638596,-0.04125506430864334,-0.03823189437389374
1761466495638183400,3.986183349609375,-0.05680268257856369,-0.054089903831481934,-0.04986165091395378
1761466495648167400,3.99616748046875,-0.05693713575601578,-0.06073499843478203,-0.06317397207021713
1761466495658152400,4.00615234375,-0.06277984380722046,-0.04679814353585243,-0.06453192234039307
1761466495668136400,4.016136474609375,-0.05655299872159958,-0.034730907529592514,-0.061710111796855927
1761466495678121200,4.026121337890625,-0.0527513362467289,-0.03382596746087074,-0.06457354128360748
1761466495688106200,4.036106201171875,-0.04691723361611366,-0.018006211146712303,-0.060201384127140045
1761466495698090200,4.04609033203125,-0.044170182198286057,-0.011838064529001713,-0.05739973857998848
1761466495708075300,4.0560751953125,-0.034975867718458176,-0.010201765224337578,-0.04755744710564613
1761466495718059300,4.066059326171875,-0.02201559580862522,-0.010192977264523506,-0.04207532852888107
1761466495728044300,4.076044189453125,-0.012595394626259804,-0.006508326157927513,-0.02935430034995079
1761466495738028300,4.0860283203125,-0.0049699656665325165,0.005593609996140003,-0.021213548257946968
1761466495748013300,4.096013427734375,0.0034974305890500546,0.010094378143548965,-0.007666824385523796
1761466495757998600,4.10599853515625,0.008302039466798306,0.02294093556702137,0.005403704009950161
1761466495767982600,4.115982666015625,0.010153185576200485,0.025953451171517372,0.012396851554512978
1761466495777967400,4.12596728515625,0.009791795164346695,0.02148892730474472,0.019897112622857094
1761466495787951400,4.135951416015625,0.013338321819901466,0.015131514519453049,0.026723403483629227
1761466495797936400,4.145936279296875,0.013066945597529411,0.031055087223649025,0.03522421419620514
1761466495807920400,4.15592041015625,0.012490199878811836,0.03452155366539955,0.03738679364323616
1761466495817905400,4.165905517578125,0.01251736469566822,0.024019375443458557,0.03716495260596275
1761466495827890400,4.175890380859375,0.015576113015413284,0.012188734486699104,0.03409504517912865
1761466495837874400,4.18587451171875,0.016954831779003143,0.029664665460586548,0.03506523370742798
1761466495847859500,4.195859375,0.017972106114029884,0.042843740433454514,0.039183177053928375
1761466495857843500,4.205843505859375,0.02030210569500923,0.04054782912135124,0.03911047428846359
1761466495867828500,4.215828369140625,0.017785565927624702,0.03370770066976547,0.04189527407288551
1761466495877812500,4.2258125,0.014417733997106552,0.028421329334378242,0.04189660772681236
1761466495887797200,4.23579736328125,0.007927734404802322,0.021690694615244865,0.03620326891541481
1761466495897781200,4.24578125,0.006719458848237991,0.013861533254384995,0.03320161998271942
1761466495907766300,4.255766357421875,0.003603082848712802,0.015815304592251778,0.02972361259162426
1761466495917751300,4.265751220703125,-0.006487102247774601,0.010190175846219063,0.034991342574357986
1761466495927735300,4.2757353515625,-0.005561136174947023,0.018722621724009514,0.0331699512898922
1761466495937720300,4.28572021484375,-0.007272749673575163,0.017291173338890076,0.03126419335603714
1761466495947704300,4.295704345703125,-0.007699443958699703,0.012001261115074158,0.017449501901865005
1761466495957689300,4.305689453125,-0.004921500571072102,0.0016221236437559128,0.007291940972208977
1761466495967674400,4.31567431640625,-0.009310656227171421,-0.005257087759673595,-0.0031844021286815405
1761466495977658400,4.325658447265625,-0.009933036752045155,-0.002950257621705532,-0.0123318275436759
1761466495987643400,4.335643310546875,-0.010941708460450172,-0.002376762218773365,-0.023414453491568565
1761466495997627100,4.345627197265625,-0.01658201776444912,-0.004778134636580944,-0.031055862084031105
1761466496007612400,4.3556123046875,-0.018898263573646545,0.002602719934657216,-0.0331428125500679
1761466496017596400,4.365596435546875,-0.013739720918238163,0.006926895119249821,-0.031051168218255043
1761466496027581400,4.37558154296875,-0.008229279890656471,0.014357476495206356,-0.02429116703569889
1761466496037566500,4.38556640625,-0.004863044247031212,0.013307924382388592,-0.019512923434376717
1761466496047550500,4.395550537109375,0.0043195150792598724,0.012610631994903088,-0.014617023058235645
1761466496057535500,4.405535400390625,0.010840265080332756,0.010277170687913895,-0.013728858903050423
1761466496067519500,4.41551953125,0.013604724779725075,0.006652727723121643,-0.01527126133441925
1761466496077504500,4.42550439453125,0.010579906404018402,0.009184328839182854,-0.009017094038426876
1761466496087489300,4.4354892578125,0.018549557775259018,0.019472680985927582,-0.005675594322383404
1761466496097473300,4.445473388671875,0.022154677659273148,0.029422517865896225,0.000840894179418683
1761466496107458300,4.455458251953125,0.02746136486530304,0.029330266639590263,0.009498984552919865
1761466496117442300,4.4654423828125,0.02722247876226902,0.017912229523062706,0.013491063378751278
1761466496127427300,4.47542724609375,0.027639418840408325,0.0034822418820112944,0.015376671217381954
1761466496137411300,4.485411376953125,0.02573605626821518,-0.007733394391834736,0.014706087298691273
1761466496147396400,4.495396240234375,0.018800990656018257,-0.007222439162433147,0.012612731195986271
1761466496157381400,4.50538134765625,0.012047214433550835,-0.005491384770721197,0.013667343184351921
1761466496167365400,4.515365478515625,0.00751539645716548,-0.008872874081134796,0.013649707660079002
1761466496177350400,4.525350341796875,0.008130320347845554,-0.017876222729682922,0.0153189767152071
1761466496187338000,4.535337890625,0.0045618051663041115,-0.009023787453770638,0.01892337203025818
1761466496197322800,4.54532275390625,0.0028888073284178972,0.0016331176739186049,0.027490492910146713
1761466496207306800,4.555306640625,-0.0038793692365288734,0.000776032218709588,0.03286202624440193
1761466496217294000,4.565294189453125,-0.006577417254447937,-0.002520961221307516,0.035581111907958984
1761466496227278800,4.57527880859375,-0.013875001110136509,-0.012439466081559658,0.03224460035562515
1761466496237262800,4.585262939453125,-0.016880646347999573,-0.0169918742030859,0.027623215690255165
1761466496247248000,4.595247802734375,-0.017164789140224457,-0.022776469588279724,0.016292862594127655
1761466496257233000,4.60523291015625,-0.017529375851154327,-0.02190721407532692,0.00777846947312355
1761466496267217000,4.615216796875,-0.020395291969180107,-0.02762736566364765,0.0021262362133711576
1761466496277202000,4.625201904296875,-0.019137481227517128,-0.03703977167606354,-0.0009931244421750307
1761466496287186000,4.63518603515625,-0.02111765742301941,-0.04053337499499321,-0.0026765845250338316
1761466496297171000,4.6451708984375,-0.021693699061870575,-0.035152725875377655,-0.0035271979868412018
1761466496307155000,4.655155029296875,-0.021945200860500336,-0.033007021993398666,-0.0011900159297510982
1761466496317140000,4.665139892578125,-0.029646530747413635,-0.02232481725513935,-0.004455051384866238
1761466496327124700,4.675124755859375,-0.05624565854668617,-0.031448155641555786,0.008819051086902618
1761466496337108700,4.685108642578125,-0.06888023018836975,-0.02413831278681755,0.021716739982366562
1761466496347093800,4.69509375,-0.06917213648557663,-0.025410203263163567,0.02222304232418537
1761466496357077800,4.705077880859375,-0.06744267791509628,-0.03290646895766258,0.012651108205318451
1761466496367062800,4.715062744140625,-0.06766394525766373,-0.04261180758476257,0.001629372127354145
1761466496377047800,4.7250478515625,-0.06936836987733841,-0.05496754124760628,-0.020980598405003548
1761466496387031800,4.73503173828125,-0.07190895080566406,-0.07020468264818192,-0.04034029692411423
1761466496397016800,4.745016845703125,-0.06798078864812851,-0.08240355551242828,-0.05366941913962364
1761466496407000800,4.755000732421875,-0.06177613511681557,-0.084104023873806,-0.062024328857660294
1761466496416985900,4.76498583984375,-0.05120179057121277,-0.07446417957544327,-0.06641348451375961
1761466496426969900,4.774969970703125,-0.049216922372579575,-0.08143734186887741,-0.0634184256196022
1761466496436955000,4.784954833984375,-0.04853621870279312,-0.08261525630950928,-0.05889264866709709
1761466496446940000,4.79493994140625,-0.04456797242164612,-0.08112294971942902,-0.04906173050403595
1761466496456924000,4.804923828125,-0.03994685411453247,-0.07996180653572083,-0.04303845763206482
1761466496466909000,4.814908935546875,-0.029197698459029198,-0.0756334736943245,-0.035459987819194794
1761466496476893000,4.824892822265625,-0.019330419600009918,-0.07314954698085785,-0.04048457369208336
1761466496486878000,4.8348779296875,-0.012977108359336853,-0.06270793825387955,-0.04279312863945961
1761466496496863000,4.844863037109375,-0.007407373748719692,-0.055596496909856796,-0.04513511061668396
1761466496506847000,4.854846923828125,-0.0004717279225587845,-0.049477577209472656,-0.04671192914247513
1761466496516832000,4.86483203125,0.0010486706160008907,-0.05143740028142929,-0.036283254623413086
1761466496526816000,4.87481591796875,0.007536372169852257,-0.04822905361652374,-0.027313953265547752
1761466496536800800,4.88480078125,0.005031935404986143,-0.03959588333964348,-0.010196219198405743
1761466496546784800,4.89478466796875,0.0052612847648561,-0.027325019240379333,0.0015071406960487366
1761466496556769800,4.904769775390625,0.004743566270917654,-0.020817851647734642,0.01226870808750391
1761466496566754800,4.9147548828125,0.004870180506259203,-0.014573097229003906,0.021016817539930344
1761466496576738800,4.92473876953125,0.009464399889111519,-0.0010181395336985588,0.023813936859369278
1761466496586723800,4.934723876953125,0.005664321128278971,0.008622711524367332,0.028758296743035316
1761466496596707800,4.944707763671875,0.012712642550468445,0.010376403108239174,0.03654271364212036
1761466496606692900,4.95469287109375,0.008959806524217129,0.010416987352073193,0.036372922360897064
1761466496616678000,4.964677978515625,0.009228520095348358,0.012813565321266651,0.032833050936460495
1761466496626662000,4.974661865234375,0.010463323444128036,0.021540051326155663,0.031110869720578194
1761466496636646700,4.984646728515625,0.011962948366999626,0.027946019545197487,0.0233184602111578
1761466496646630700,4.994630615234375,0.010120069608092308,0.02988411672413349,0.01968150958418846
1761466496656616000,5.004615966796875,0.01371560338884592,0.02854054979979992,0.024747908115386963
1761466496666601000,5.01460107421875,0.012693100608885288,0.03368491306900978,0.03867882862687111
1761466496676585000,5.0245849609375,0.020829856395721436,0.03326733037829399,0.056702304631471634
1761466496686570000,5.034570068359375,0.027431070804595947,0.029319215565919876,0.08335178345441818
1761466496696554000,5.044553955078125,0.029351744800806046,0.046887557953596115,0.11623809486627579
1761466496706539000,5.0545390625,0.03392918407917023,0.08484985679388046,0.13750316202640533
1761466496716523800,5.064523681640625,0.03635133057832718,0.1178903579711914,0.14059457182884216
1761466496726507800,5.0745078125,0.04287499934434891,0.14535829424858093,0.11085675656795502
1761466496736492800,5.084492919921875,0.038524460047483444,0.11692346632480621,0.0801587626338005
1761466496746476800,5.094476806640625,0.027622755616903305,0.08028004318475723,0.06908942759037018
1761466496756461800,5.1044619140625,0.02224663272500038,0.0635087862610817,0.059914570301771164
1761466496766446800,5.11444677734375,0.01615210436284542,0.05567207559943199,0.05460198596119881
1761466496776430800,5.124430908203125,0.019202489405870438,0.052047248929739,0.04823996126651764
1761466496786415900,5.134415771484375,0.01905517838895321,0.04164731502532959,0.044781554490327835
1761466496796399900,5.14439990234375,0.025114668533205986,0.020842432975769043,0.04548223316669464
1761466496806385000,5.154385009765625,0.02450447529554367,0.001138252206146717,0.044218312948942184
1761466496816369700,5.16436962890625,0.02064688690006733,-0.009727178141474724,0.04143131524324417
1761466496826353700,5.174353759765625,0.0025375427212566137,0.005224964581429958,0.04806908592581749
1761466496836338700,5.184338623046875,0.017156433314085007,0.019127199426293373,0.07154645025730133
1761466496846322700,5.19432275390625,0.01774436980485916,0.012858276255428791,0.07760021835565567
1761466496856308000,5.204307861328125,0.022705307230353355,0.010004966519773006,0.07146269828081131
1761466496866291700,5.214291748046875,0.020018773153424263,-0.005048567429184914,0.06585939228534698
1761466496876277000,5.224277099609375,0.01910158060491085,-0.01771695725619793,0.060267817229032516
1761466496886262000,5.234261962890625,0.013421453535556793,-0.02783953584730625,0.05710097774863243
1761466496896246000,5.24424609375,0.010792115703225136,-0.024250393733382225,0.06039424240589142
1761466496906231000,5.25423095703125,0.0023076364304870367,-0.016056135296821594,0.06902943551540375
1761466496916215000,5.264215087890625,-0.004816585686057806,-0.003941149450838566,0.07511289417743683
1761466496926199800,5.27419970703125,-0.009871684946119785,0.006024468690156937,0.08045928180217743
1761466496936184800,5.284184814453125,-0.010483945719897747,0.01536790281534195,0.08357757329940796
1761466496946168800,5.2941689453125,-0.010553885251283646,0.03423161432147026,0.08661465346813202
1761466496956153900,5.30415380859375,-0.009841490536928177,0.04022878780961037,0.08693502843379974
1761466496966137900,5.314137939453125,-0.005190455354750156,0.04065537080168724,0.08231331408023834
1761466496976123000,5.324122802734375,0.0001704874448478222,0.04391214996576309,0.07341250032186508
1761466496986108000,5.33410791015625,0.010998139157891273,0.04403068125247955,0.06267945468425751
1761466496996092000,5.344091796875,0.018098926171660423,0.04961506649851799,0.05650198832154274
1761466497006077000,5.354076904296875,0.022315913811326027,0.04895463585853577,0.0439729169011116
1761466497016061000,5.36406103515625,0.02678469754755497,0.04029669612646103,0.03344464302062988
1761466497026045700,5.374045654296875,0.027607563883066177,0.022692851722240448,0.029938755556941032
1761466497036030700,5.38403076171875,0.023376600816845894,0.019802788272500038,0.027241770178079605
1761466497046014700,5.3940146484375,0.016589801758527756,0.012232753448188305,0.027347764000296593
1761466497055999700,5.403999755859375,0.014190027490258217,0.014177125878632069,0.027429522946476936
1761466497065983700,5.413983642578125,0.01395319402217865,0.014291227795183659,0.027730338275432587
1761466497075969000,5.423968994140625,0.012608829885721207,0.022050611674785614,0.03106115385890007
1761466497085954000,5.4339541015625,0.010648071765899658,0.02844669669866562,0.03457169234752655
1761466497095938000,5.44393798828125,0.00993407890200615,0.0396341048181057,0.0419238805770874
1761466497105922800,5.4539228515625,0.0045389942824840546,0.04152209684252739,0.04433494061231613
1761466497115907000,5.463906982421875,0.0053810859099030495,0.04454771429300308,0.05059283599257469
1761466497125891800,5.473891845703125,0.0037783351726830006,0.04417392238974571,0.052505336701869965
1761466497135876900,5.483876953125,0.003595375921577215,0.039198871701955795,0.05031435191631317
1761466497145860900,5.49386083984375,-0.0009456952102482319,0.035832729190588,0.04583502933382988
1761466497155846000,5.503845947265625,-0.0019044331274926662,0.045574840158224106,0.04674423113465309
1761466497165830000,5.513829833984375,-0.009641028940677643,0.04043939337134361,0.05343720316886902
1761466497175815000,5.52381494140625,-0.012803000397980213,0.036422282457351685,0.06205013021826744
1761466497185796900,5.533796875,-0.017895204946398735,0.04016372188925743,0.06805897504091263
1761466497195781000,5.543781005859375,-0.02112562023103237,0.0406915582716465,0.07188806682825089
1761466497205766000,5.553765869140625,-0.025919269770383835,0.037110161036252975,0.06497745960950851
1761466497215750000,5.56375,-0.03202243521809578,0.04055975377559662,0.05713604763150215
1761466497225735000,5.57373486328125,-0.03347710892558098,0.03295038267970085,0.04491063952445984
1761466497235720000,5.583719970703125,-0.03482013940811157,0.022317180410027504,0.03223079442977905
1761466497245704000,5.593703857421875,-0.040289752185344696,0.005189262796193361,0.018083207309246063
1761466497255689000,5.60368896484375,-0.0427265465259552,-0.016036396846175194,0.012482845224440098
1761466497265673000,5.6136728515625,-0.04201975464820862,-0.029332393780350685,0.01277831569314003
1761466497275658000,5.623657958984375,-0.045060284435749054,-0.025070004165172577,0.0230056531727314
1761466497285643000,5.63364306640625,-0.04866082966327667,-0.01596073992550373,0.029036017134785652
1761466497295626800,5.643626708984375,-0.05151094123721123,-0.01709258370101452,0.03058171458542347
1761466497305612000,5.653612060546875,-0.05225194990634918,-0.024169305339455605,0.027361007407307625
1761466497315596000,5.663595947265625,-0.05280189588665962,-0.029761144891381264,0.02391114830970764
1761466497325581000,5.6735810546875,-0.05313532054424286,-0.036398276686668396,0.014647344127297401
1761466497335566000,5.683566162109375,-0.04983486607670784,-0.03262963891029358,0.011276047676801682
1761466497345550000,5.693550048828125,-0.046960365027189255,-0.03880317881703377,0.008251139894127846
1761466497355535000,5.70353515625,-0.04143830016255379,-0.04285251721739769,0.00899735651910305
1761466497365519000,5.71351904296875,-0.04019947350025177,-0.04417269304394722,0.006397788412868977
1761466497375504100,5.723504150390625,-0.04297315329313278,-0.04834853112697601,0.003681363770738244
1761466497385489000,5.733489013671875,-0.03916168957948685,-0.042270585894584656,-0.0019189006416127086
1761466497395473000,5.743472900390625,-0.0391843281686306,-0.04562590271234512,-0.0063964733853936195
1761466497405458000,5.7534580078125,-0.04122983664274216,-0.04504162073135376,-0.014060004614293575
1761466497415443000,5.76344287109375,-0.03926602005958557,-0.03878479078412056,-0.019880877807736397
1761466497425427000,5.773427001953125,-0.0362691655755043,-0.03883432596921921,-0.025084692984819412
1761466497435412000,5.783411865234375,-0.03503825142979622,-0.04245728999376297,-0.02712440863251686
1761466497445396000,5.79339599609375,-0.031338222324848175,-0.03468804061412811,-0.024187199771404266
1761466497455381000,5.803381103515625,-0.026173818856477737,-0.01831492781639099,-0.016472021117806435
1761466497465365800,5.81336572265625,-0.02340749464929104,-0.009609844535589218,-0.00989054050296545
1761466497475350000,5.82335009765625,-0.022778455168008804,-0.006933101452887058,-0.0035546142607927322
1761466497485334800,5.833334716796875,-0.018275748938322067,-0.002684552688151598,0.0013408185914158821
1761466497495318800,5.84331884765625,-0.012554478831589222,-0.0006192713044583797,0.005569385830312967
1761466497505304000,5.853303955078125,-0.006610329728573561,-0.0069482335820794106,0.006355335004627705
1761466497515289000,5.8632890625,-0.00836428813636303,-0.011454302817583084,0.001708385767415166
1761466497525273000,5.873273193359375,-0.0077004097402095795,-0.005013268440961838,0.002947710920125246
1761466497535258000,5.883258056640625,-0.008551289327442646,0.02312888763844967,0.01014543604105711
1761466497545242000,5.8932421875,-0.011364715173840523,0.036500606685876846,0.015959978103637695
1761466497555227100,5.90322705078125,-0.010360170155763626,0.03296792507171631,0.016276095062494278
1761466497565212000,5.9132119140625,-0.009733099490404129,0.026869304478168488,0.018155168741941452
1761466497575196000,5.92319580078125,-0.00448613939806819,0.030771635472774506,0.02609804831445217
1761466497585181000,5.933180908203125,0.00017033377662301064,0.03691316768527031,0.03089441917836666
1761466497595165000,5.9431650390625,0.0013272110372781754,0.03888949751853943,0.03070853091776371
1761466497605150000,5.95314990234375,0.003179497318342328,0.04716462641954422,0.03656954690814018
1761466497615135000,5.963135009765625,0.0027557883877307177,0.04782934859395027,0.03684545308351517
1761466497625119000,5.973118896484375,0.0027272491715848446,0.03745848312973976,0.03057737834751606
1761466497635104000,5.98310400390625,0.0002979137934744358,0.029635444283485413,0.02877042628824711
1761466497645088000,5.993087890625,-0.0003052428364753723,0.026842139661312103,0.025404825806617737
1761466497655073000,6.003072998046875,0.0030000063125044107,0.024375520646572113,0.018898190930485725
1761466497665057800,6.013057861328125,-0.0025834115222096443,0.015934890136122704,0.01925744116306305
1761466497675041800,6.023041748046875,-0.0034119216725230217,0.01694342866539955,0.0208745114505291
1761466497685026800,6.03302685546875,-0.0056707472540438175,0.02199460007250309,0.026056509464979172
1761466497695010800,6.0430107421875,-0.008057206869125366,0.019119450822472572,0.02339601144194603
1761466497704995800,6.052995849609375,-0.0026209144853055477,0.008697571232914925,0.018956881016492844
1761466497714981000,6.062981201171875,-0.0010917270556092262,-0.002837910782545805,0.008485331200063229
1761466497724965000,6.072965087890625,-0.0020691072568297386,-0.0009689042344689369,0.00001008785329759121
1761466497734950100,6.0829501953125,-0.00018092617392539978,0.0010345918126404285,-0.0033454950898885727
1761466497744935000,6.092934814453125,0.0008241976611316204,0.0008000577799975872,-0.008171025663614273
1761466497754919200,6.102919189453125,-0.0006991303525865078,-0.006870911456644535,-0.009633633308112621
1761466497764904000,6.112904052734375,-0.003285225946456194,-0.005218145437538624,-0.0077435774728655815
1761466497774888000,6.122887939453125,-0.006383014377206564,0.0030714760068804026,-0.00689322967082262
1761466497784873000,6.132873046875,-0.005561268888413906,0.003835828974843025,-0.0030058519914746284
1761466497794858000,6.14285791015625,-0.009135497733950615,0.001241910271346569,0.0004013963043689728
1761466497804842000,6.152842041015625,-0.012712722644209862,-0.008914937265217304,0.0017790121491998434
1761466497814827000,6.162826904296875,-0.018580732867121696,-0.01662825047969818,-0.0003166294191032648
1761466497824811000,6.17281103515625,-0.02473185397684574,-0.021274292841553688,-0.011314542032778263
1761466497834796000,6.182796142578125,-0.024084705859422684,-0.021751798689365387,-0.02240101434290409
1761466497844780800,6.19278076171875,-0.028548238798975945,-0.01725350320339203,-0.03008589893579483
1761466497854765000,6.20276513671875,-0.026691747829318047,-0.014828162267804146,-0.030052876099944115
1761466497864749800,6.212749755859375,-0.029467634856700897,-0.019212573766708374,-0.02459159679710865
1761466497874733800,6.22273388671875,-0.03093849867582321,-0.022703178226947784,-0.020886074751615524
1761466497884718800,6.23271875,-0.03070518746972084,-0.01734047569334507,-0.012162493541836739
1761466497894704000,6.2427041015625,-0.03233371302485466,-0.013541211374104023,-0.008886005729436874
1761466497904687900,6.25268798828125,-0.034033916890621185,-0.01047629863023758,-0.00532197579741478
1761466497914673200,6.262673095703125,-0.03435562551021576,-0.0022718985565006733,-0.011287456378340721
1761466497924658200,6.272658203125,-0.029020866379141808,0.0037057180888950825,-0.004658997058868408
1761466497934642200,6.28264208984375,-0.02898571453988552,0.0029469835571944714,-0.004935166798532009
1761466497944627000,6.292626953125,-0.02984076552093029,-0.0008994753006845713,-0.007063901051878929
1761466497954611000,6.30261083984375,-0.03395002335309982,-0.007904121652245522,-0.0031338741537183523
1761466497964596000,6.312595947265625,-0.034638628363609314,-0.007393214851617813,-0.0011608623899519444
1761466497974581000,6.3225810546875,-0.03684079647064209,-0.00815807469189167,-0.0009113240521401167
1761466497984565000,6.33256494140625,-0.04260169342160225,-0.01064634695649147,-0.0014845391269773245
1761466497994550000,6.342550048828125,-0.045962072908878326,-0.02537469193339348,-0.014143342152237892
1761466498004534000,6.352533935546875,-0.04510853439569473,-0.03870231285691261,-0.02415900118649006
1761466498014519000,6.36251904296875,-0.042891718447208405,-0.044719990342855453,-0.030936213210225105
1761466498024504000,6.372504150390625,-0.04444233328104019,-0.04388472065329552,-0.02965163066983223
1761466498034488000,6.382488037109375,-0.03686004877090454,-0.04129666090011597,-0.022271744906902313
1761466498044472800,6.392472900390625,-0.03697790578007698,-0.03622450679540634,-0.014070149511098862
1761466498054457900,6.402457763671875,-0.03979020193219185,-0.02598944492638111,-0.008237825706601143
1761466498064441900,6.41244189453125,-0.04267137497663498,-0.02204156666994095,-0.007089992519468069
1761466498074427000,6.422427001953125,-0.041744861751794815,-0.02627226524055004,-0.007928089238703251
1761466498084411000,6.432410888671875,-0.03768198937177658,-0.020265595987439156,-0.010003611445426941
1761466498094396000,6.44239599609375,-0.0337250642478466,-0.01114586740732193,-0.010015595704317093
1761466498104381200,6.452381103515625,-0.031375009566545486,-0.011692231521010399,-0.009769365191459656
1761466498114365200,6.462365234375,-0.026190632954239845,-0.015632111579179764,-0.012642382644116879
1761466498124350000,6.472349853515625,-0.025056466460227966,-0.006588866002857685,-0.011141492985188961
1761466498134334200,6.482334228515625,-0.023957114666700363,0.013035967946052551,-0.004252694547176361
1761466498144319000,6.492319091796875,-0.023867568001151085,0.014141961932182312,0.0007561568636447191
1761466498154304000,6.502303955078125,-0.023329341784119606,-0.003427710384130478,-0.010899700224399567
1761466498164288000,6.5122880859375,-0.022648032754659653,-0.017653999850153923,-0.017882175743579865
1761466498174273000,6.52227294921875,-0.018149420619010925,-0.011288778856396675,-0.017457667738199234
1761466498184260900,6.5322607421875,-0.017901727929711342,-0.008091229945421219,-0.01501435972750187
1761466498194244600,6.54224462890625,-0.019425855949521065,-0.010159440338611603,-0.014597575180232525
1761466498204230000,6.55222998046875,-0.02316094934940338,-0.009072668850421906,-0.010720095597207546
1761466498214214000,6.5622138671875,-0.02205839939415455,-0.004355145618319511,-0.0071527911350131035
1761466498224199000,6.572198974609375,-0.02485066093504429,-0.0005575204268097878,0.0028567288536578417
1761466498234183700,6.58218359375,-0.028381211683154106,0.008650625124573708,0.0063718343153595924
1761466498244167700,6.592167724609375,-0.029566649347543716,0.006222904659807682,0.007982272654771805
1761466498254152700,6.602152587890625,-0.027687523514032364,-0.0007854695431888103,0.0015281012747436762
1761466498264136700,6.61213671875,-0.02978971228003502,-0.0061332653276622295,-0.0038114956114441156
1761466498274121700,6.622121826171875,-0.027771033346652985,-0.005257884506136179,-0.004434675443917513
1761466498284106800,6.632106689453125,-0.022636838257312775,-0.010107066482305527,-0.006331952288746834
1761466498294090800,6.6420908203125,-0.020647190511226654,-0.020327478647232056,-0.013780014589428902
1761466498304075800,6.65207568359375,-0.01934087462723255,-0.03063548542559147,-0.016235679388046265
1761466498314059800,6.662059814453125,-0.017752032727003098,-0.020764479413628578,-0.012666511349380016
1761466498324044800,6.672044921875,-0.01764519140124321,-0.004595514852553606,-0.0061920415610075
1761466498334029600,6.682029541015625,-0.023563001304864883,-0.005162501707673073,-0.004003189504146576
1761466498344013600,6.692013671875,-0.022881656885147095,-0.012032819911837578,-0.009948903694748878
1761466498353998600,6.70199853515625,-0.024606853723526,-0.028737496584653854,-0.021776268258690834
1761466498363983600,6.711983642578125,-0.020176315680146217,-0.03249097615480423,-0.021585267037153244
1761466498373967600,6.721967529296875,-0.014733348041772842,-0.02106521837413311,-0.01506158709526062
1761466498383953000,6.731952880859375,-0.0164322592318058,-0.01696193590760231,-0.008717826567590237
1761466498393936600,6.7419365234375,-0.017048249021172523,-0.00842037983238697,-0.00780596025288105
1761466498403922000,6.751921875,-0.015746725723147392,-0.002693227492272854,-0.006208297796547413
1761466498413906700,6.76190673828125,-0.016666047275066376,-0.007099693641066551,-0.011252058669924736
1761466498423891000,6.771890869140625,-0.01548510231077671,-0.0139277633279562,-0.018840191885828972
1761466498433875700,6.781875732421875,-0.010678362101316452,-0.015885453671216965,-0.030595917254686356
1761466498443860700,6.79186083984375,-0.0074608237482607365,-0.013194004073739052,-0.03655919060111046
1761466498453844700,6.8018447265625,-0.001742484513670206,-0.008989672176539898,-0.03956989198923111
1761466498463829800,6.811829833984375,0.004189376253634691,-0.00854064617305994,-0.035284046083688736
1761466498473813800,6.821813720703125,0.0009722779504954815,-0.0025088528636842966,-0.027519067749381065
1761466498483798800,6.831798828125,0.00021786009892821312,-0.0006199565250426531,-0.02319127507507801
1761466498493783800,6.84178369140625,-0.0038059097714722157,-0.0038343919441103935,-0.021644245833158493
1761466498503767800,6.851767822265625,-0.003940143622457981,-0.003408085322007537,-0.020371872931718826
1761466498513752600,6.861752685546875,-0.007677889429032803,0.0024394176434725523,-0.023481113836169243
1761466498523736800,6.87173681640625,-0.006157794501632452,0.0015584195498377085,-0.019641930237412453
1761466498533721600,6.8817216796875,-0.0041084918193519115,-0.0012498837895691395,-0.02143130823969841
1761466498543706600,6.89170654296875,-0.0012309839949011803,-0.0015151846455410123,-0.016855444759130478
1761466498553690600,6.901690673828125,-0.0009936965070664883,-0.004219891037791967,-0.013565109111368656
1761466498563675600,6.911675537109375,0.004897612147033215,0.0029442443046718836,-0.014497796073555946
1761466498573661000,6.921660888671875,0.0027921167202293873,0.004644939675927162,-0.017429936677217484
1761466498583644700,6.931644775390625,0.003355402732267976,-0.0033576360438019037,-0.019518975168466568
1761466498593630000,6.9416298828125,0.0003167358227074146,-0.014354893937706947,-0.02176029235124588
1761466498603614000,6.951614013671875,-0.0009448588825762272,-0.008948590606451035,-0.021623024716973305
1761466498613598700,6.9615986328125,-0.0020167813636362553,-0.0032249251380562782,-0.02243821695446968
1761466498623583700,6.971583740234375,-0.004536360967904329,-0.00858741719275713,-0.018381712958216667
1761466498633567700,6.981567626953125,0.0002474747598171234,-0.013035961426794529,-0.018056007102131844
1761466498643552800,6.991552734375,-0.0002513434737920761,-0.00266490550711751,-0.008122188039124012
1761466498653536800,7.001536865234375,0.0016317777335643768,0.005270249210298061,-0.00015907012857496738
1761466498663521800,7.011521728515625,0.0042114160023629665,0.010971286334097385,0.005626126192510128
1761466498673506800,7.0215068359375,0.0057632396928966045,0.017084572464227676,0.003350988030433655
1761466498683490800,7.03149072265625,0.01330048218369484,0.013181151822209358,-0.000540990149602294
1761466498693475800,7.041475830078125,0.010280458256602287,0.008002635091543198,-0.004663563333451748
1761466498703459800,7.0514599609375,0.01315431110560894,0.007834083400666714,-0.009338175877928734
1761466498713444600,7.061444580078125,0.013433942571282387,0.015321293845772743,-0.007877165451645851
1761466498723429600,7.0714296875,0.014399588108062744,0.017587510868906975,-0.004985417239367962
1761466498733413600,7.08141357421875,0.00938458926975727,0.012373307719826698,-0.007067210040986538
1761466498743398700,7.091398681640625,0.008334871381521225,0.006743925623595715,-0.006883707828819752
1761466498753383700,7.1013837890625,0.008690403774380684,0.009300826117396355,-0.0020897514186799526
1761466498763367700,7.11136767578125,0.013874925673007965,0.018817732110619545,0.0092224245890975
1761466498773352700,7.121352783203125,0.013406476005911827,0.022784510627388954,0.012343916110694408
1761466498783336700,7.131336669921875,0.01770898699760437,0.02049987018108368,0.015501121990382671
1761466498793321700,7.14132177734375,0.01855374127626419,0.02694179117679596,0.010492781177163124
1761466498803306800,7.151306640625,0.014513680711388588,0.021014006808400154,0.003472347976639867
1761466498813290800,7.161290771484375,0.013833243399858475,0.01937057077884674,-0.0028460014145821333
1761466498823275800,7.17127587890625,0.011922258883714676,0.01219549123197794,-0.010393388569355011
1761466498833260800,7.1812607421875,0.007127237971872091,0.005838791839778423,-0.01579933986067772
1761466498843244800,7.191244873046875,0.004788743332028389,0.004318141378462315,-0.01951059326529503
1761466498853229800,7.201229736328125,0.005561592988669872,-0.003159748390316963,-0.020501822233200073
1761466498863213800,7.2112138671875,0.006860655266791582,-0.006382187828421593,-0.01947503350675106
1761466498873198800,7.22119873046875,0.006900336593389511,-0.011521023698151112,-0.019384752959012985
1761466498883183600,7.23118359375,0.007589086890220642,-0.016769079491496086,-0.015752939507365227
1761466498893167600,7.241167724609375,0.005219939164817333,-0.019044751301407814,-0.014976628124713898
1761466498903152600,7.251152587890625,0.003737812861800194,-0.01825551502406597,-0.01166542898863554
1761466498913136600,7.26113671875,0.004375639837235212,-0.01655641756951809,-0.008726364001631737
1761466498923121700,7.27112158203125,0.002632703399285674,-0.023733338341116905,-0.013468969613313675
1761466498933106700,7.281106689453125,0.0003077639266848564,-0.02959735319018364,-0.015491906553506851
1761466498943090700,7.291090576171875,-0.003700008150190115,-0.028772173449397087,-0.01733996719121933
1761466498953075700,7.30107568359375,0.0014481483958661556,-0.019729144871234894,-0.01186956837773323
1761466498963059700,7.311059814453125,-0.004657250363379717,-0.023299384862184525,-0.010961441323161125
1761466498973044700,7.321044677734375,-0.0033501707948744297,-0.03176131471991539,-0.011871175840497017
1761466498983029800,7.33102978515625,-0.0029323045164346695,-0.03533034771680832,-0.005806704517453909
1761466498993013500,7.341013427734375,-0.00019857008010149002,-0.029532909393310547,-0.0025054500438272953
1761466499002998800,7.350998779296875,-0.0013708812184631824,-0.030337363481521606,-0.0021877125836908817
1761466499012983800,7.36098388671875,-0.0018776808865368366,-0.03147932514548302,0.0022342000156641006
1761466499022967800,7.3709677734375,-0.0027326480485498905,-0.033433496952056885,0.00039856135845184326
1761466499032952800,7.380952880859375,-0.0020961519330739975,-0.03178926184773445,0.000737315509468317
1761466499042936800,7.390936767578125,-0.0026627168990671635,-0.032237011939287186,-0.006771833635866642
1761466499052921900,7.400921875,0.0019799722358584404,-0.032351795583963394,-0.016765611246228218
1761466499062906600,7.41090673828125,0.003952363971620798,-0.023410845547914505,-0.019548986107110977
1761466499072891000,7.420890869140625,0.003306547412648797,-0.02187047339975834,-0.015330805443227291
1761466499082875600,7.430875732421875,0.006568615790456533,-0.01146739162504673,-0.006701129022985697
1761466499092859600,7.440859619140625,0.007926029153168201,-0.006639346480369568,0.0015591979026794434
1761466499102844700,7.4508447265625,0.015362678095698357,-0.009487840346992016,0.008082907646894455
1761466499112829700,7.46082958984375,0.00966564379632473,-0.01134912297129631,0.0012031637597829103
1761466499122813700,7.470813720703125,0.008520676754415035,0.006648177281022072,-0.0021388523746281862
1761466499132798700,7.480798828125,0.0039466978050768375,0.01446428894996643,-0.00022670277394354343
1761466499142783700,7.49078369140625,0.00247481488622725,0.015009821392595768,0.003911383915692568
1761466499152767700,7.500767822265625,-0.004976709373295307,0.01237249281257391,0.011776497587561607
1761466499162752500,7.51075244140625,0.00035665417090058327,0.02077094092965126,0.01954588107764721
1761466499172736800,7.52073681640625,0.0020956983789801598,0.015855278819799423,0.020675061270594597
1761466499182718000,7.530718017578125,0.0022654265630990267,0.006416614167392254,0.016620010137557983
1761466499192703200,7.540703125,0.0031365465838462114,-0.00909390114247799,0.007623053155839443
1761466499202687200,7.550687255859375,0.003430043114349246,-0.028048522770404816,-0.0053136516362428665
1761466499212672300,7.56067236328125,0.0021908741910010576,-0.03620471805334091,-0.011416285298764706
1761466499222656300,7.57065625,-0.0007962817326188087,-0.04536059498786926,-0.015369391068816185
1761466499232641300,7.580641357421875,0.0003893575631082058,-0.046215739101171494,-0.011389296501874924
1761466499242626300,7.590626220703125,0.00028106849640607834,-0.04213576763868332,-0.004412336274981499
1761466499252610300,7.6006103515625,-0.002255592495203018,-0.038861408829689026,0.004930032417178154
1761466499262595000,7.610594970703125,-0.0030652121640741825,-0.033240433782339096,0.017866479232907295
1761466499272580000,7.620580078125,-0.006029043812304735,-0.02405732125043869,0.02596195600926876
1761466499282564000,7.630564208984375,-0.0036311796866357327,-0.01615501567721367,0.03137470781803131
1761466499292549000,7.640549072265625,-0.005054639186710119,-0.021739130839705467,0.028639378026127815
1761466499302533000,7.650533203125,-0.006139097269624472,-0.02720489352941513,0.022069768980145454
1761466499312518100,7.66051806640625,-0.003612023312598467,-0.02497289888560772,0.015449948608875275
1761466499322503200,7.670503173828125,-0.003896623384207487,-0.02164081111550331,0.020126115530729294
1761466499332487200,7.680487060546875,-0.0034292382188141346,-0.01855980046093464,0.026349656283855438
1761466499342472200,7.69047216796875,0.002421303652226925,-0.017815638333559036,0.022135304287075996
1761466499352456200,7.700456298828125,0.0004284605383872986,-0.017368227243423462,0.015887795016169548
1761466499362441000,7.71044091796875,0.0026526025030761957,-0.021125085651874542,0.010384371504187584
1761466499372426200,7.72042626953125,0.0031548747792840004,-0.02292325347661972,0.009400333277881145
1761466499382410000,7.730409912109375,0.003420236986130476,-0.021492797881364822,0.009598564356565475
1761466499392395300,7.740395263671875,0.009454160928726196,-0.02479218691587448,0.018192850053310394
1761466499402379300,7.750379150390625,0.006693336181342602,-0.024869902059435844,0.02410806342959404
1761466499412364300,7.7603642578125,0.006603587418794632,-0.013520840555429459,0.031048525124788284
1761466499422349300,7.770349365234375,0.011531335301697254,-0.00439151655882597,0.031804874539375305
1761466499432333300,7.780333251953125,0.011225604452192783,-0.00010462617501616478,0.03672133758664131
1761466499442318000,7.790318115234375,0.012554319575428963,-0.001030091429129243,0.029640767723321915
1761466499452303000,7.80030322265625,0.01136042457073927,-0.00006815767847001553,0.02840639278292656
1761466499462287000,7.810287109375,0.010733597911894321,0.005866281688213348,0.02680785581469536
1761466499472272100,7.820272216796875,0.0100038917735219,0.012607275508344173,0.027565525844693184
1761466499482256100,7.830256103515625,0.007762867026031017,0.014800108969211578,0.029953483492136
1761466499492241200,7.8402412109375,0.006828630343079567,0.012332424521446228,0.034255556762218475
1761466499502226200,7.85022607421875,0.010507827624678612,0.015063225291669369,0.03983228653669357
1761466499512210200,7.860210205078125,0.00934881903231144,0.022639118134975433,0.04516846314072609
1761466499522195200,7.8701953125,0.012169887311756611,0.029618866741657257,0.04868818819522858
1761466499532179200,7.88017919921875,0.018475454300642014,0.026975145563483238,0.04883439093828201
1761466499542164000,7.8901640625,0.01996142417192459,0.01651606522500515,0.045692600309848785
1761466499552149000,7.90014892578125,0.01911933347582817,0.002762701129540801,0.042142074555158615
1761466499562133000,7.910133056640625,0.0193523857742548,-0.007460442371666431,0.034483086317777634
1761466499572118000,7.920117919921875,0.012309656478464603,-0.007288401946425438,0.030355187132954597
1761466499582103300,7.930103271484375,0.00816989317536354,-0.0139879509806633,0.028139833360910416
1761466499592087300,7.94008740234375,0.007270277477800846,-0.01681489683687687,0.027033556252717972
1761466499602072300,7.950072265625,0.0052993264980614185,-0.01926029473543167,0.032263364642858505
1761466499612056300,7.960056396484375,0.00674036331474781,-0.01743549481034279,0.03325299546122551
1761466499622041300,7.970041259765625,0.006830791477113962,-0.012090698815882206,0.03512346372008324
1761466499632026000,7.980026123046875,0.00818740576505661,-0.007838696241378784,0.03344807028770447
1761466499642008000,7.990008056640625,0.006932965014129877,-0.008441044017672539,0.030233711004257202
1761466499651993300,7.999993408203125,0.004326795227825642,-0.02120530791580677,0.021541953086853027
1761466499661977000,8.00997705078125,-0.000038703903555870056,-0.03414809703826904,0.006086440756917
1761466499671962400,8.01996240234375,0.0001399940811097622,-0.035594191402196884,-0.0031992027070373297
1761466499681946000,8.029946044921875,0.0007402240298688412,-0.03270528465509415,-0.001697029103524983
1761466499691931100,8.03993115234375,0.0000379486009478569,-0.029869286343455315,0.007216570898890495
1761466499701916200,8.049916259765626,-0.0005366713739931583,-0.02457151561975479,0.01779111474752426
1761466499711900200,8.059900146484376,-0.008423889055848122,-0.020334426313638687,0.02710552141070366
1761466499721885200,8.06988525390625,-0.005934363696724176,-0.009663967415690422,0.02612338773906231
1761466499731870200,8.0798701171875,0.0009376564994454384,-0.006762187462300062,0.022621065378189087
1761466499741854200,8.089854248046874,0.001889700535684824,-0.008541736751794815,0.011217376217246056
1761466499751839200,8.099839111328125,-0.0009143417701125145,-0.008278616704046726,-0.005676386412233114
1761466499761823200,8.1098232421875,0.0021586872171610594,0.0004747551865875721,-0.009475610218942165
1761466499771808300,8.119808349609375,0.003205309621989727,0.010046422481536865,-0.008176786825060844
1761466499781793000,8.12979296875,0.00413081469014287,0.0038105202838778496,-0.013395048677921295
1761466499791777000,8.139777099609375,0.0022607429418712854,-0.00046465243212878704,-0.026218701153993607
1761466499801762000,8.149761962890626,0.005574468057602644,-0.0011829978320747614,-0.0380198210477829
1761466499811746000,8.15974609375,0.003952869214117527,-0.003067983314394951,-0.044317662715911865
1761466499821731000,8.16973095703125,0.007402643095701933,-0.009038636460900307,-0.05040525645017624
1761466499831716000,8.179716064453125,0.002143432619050145,-0.011531355790793896,-0.055987510830163956
1761466499841700000,8.1897001953125,-0.0016824710182845592,-0.005775028839707375,-0.051890820264816284
1761466499851685000,8.19968505859375,-0.0008765985257923603,-0.0020921435207128525,-0.04519136995077133
1761466499861669000,8.209669189453125,-0.0029631578363478184,-0.0060997093096375465,-0.043251581490039825
1761466499871654400,8.219654296875,-0.0032646269537508488,-0.009228657931089401,-0.04224597290158272
1761466499881639200,8.22963916015625,-0.0033825687132775784,-0.004310307092964649,-0.03759712353348732
1761466499891623200,8.239623046875,-0.0011689495295286179,0.0005118788685649633,-0.0337054468691349
1761466499901608200,8.249608154296874,-0.00046019069850444794,-0.006848090328276157,-0.034028828144073486
1761466499911593200,8.25959326171875,-0.0023656822741031647,-0.012601850554347038,-0.03707655146718025
1761466499921577200,8.2695771484375,0.002797938883304596,-0.012900523841381073,-0.04328713193535805
1761466499931562200,8.279562255859375,0.005198512226343155,-0.01059635728597641,-0.04294491559267044
1761466499941546200,8.289546142578125,0.006781264208257198,-0.006958957761526108,-0.036018844693899155
1761466499951531300,8.29953125,0.0023463016841560602,0.0007223973516374826,-0.02636701427400112
1761466499961516000,8.30951611328125,0.005383775569498539,-0.003737566526979208,-0.02096528559923172
1761466499971500000,8.3195,0.007833883166313171,-0.0005955691449344158,-0.023212727159261703
1761466499981485000,8.329485107421876,0.004179558251053095,0.002177564660087228,-0.025022897869348526
1761466499991469000,8.339468994140624,0.004655997734516859,0.00038632238283753395,-0.030137233436107635
1761466500001454000,8.3494541015625,0.009064897894859314,-0.006551746279001236,-0.03477531298995018
1761466500011439000,8.359439208984375,0.011460677720606327,-0.00699542835354805,-0.03182772547006607
1761466500021423000,8.369423095703125,0.011342586949467659,0.0022049478720873594,-0.02724243514239788
1761466500031408000,8.379408203125,0.017574116587638855,0.007764030247926712,-0.025957193225622177
1761466500041392000,8.38939208984375,0.019453532993793488,0.006454948335886002,-0.02593386173248291
1761466500051377200,8.399377197265625,0.019301731139421463,0.007504500448703766,-0.03302772715687752
1761466500061362200,8.409362060546876,0.024039827287197113,0.005868237465620041,-0.03577612712979317
1761466500071346000,8.419345947265626,0.02786519005894661,0.0025552648585289717,-0.03958604857325554
1761466500081331200,8.429331298828124,0.02751276269555092,0.004628859460353851,-0.04218601807951927
1761466500091315200,8.439315185546874,0.02835485339164734,0.0034232463221997023,-0.04149971902370453
1761466500101300200,8.44930029296875,0.031791552901268005,0.0022055755835026503,-0.03561875596642494
1761466500111285200,8.45928515625,0.02941468171775341,0.010151117108762264,-0.028014101088047028
1761466500121269200,8.469269287109375,0.02757272683084011,0.010903920978307724,-0.018092051148414612
1761466500131254300,8.479254150390625,0.028452903032302856,0.011515116319060326,-0.008900417014956474
1761466500141239000,8.489239013671876,0.030805740505456924,0.004304356873035431,-0.0063972920179367065
1761466500151223300,8.499223388671876,0.02928054705262184,-0.004129341337829828,-0.005473441444337368
1761466500161208000,8.5092080078125,0.029315466061234474,-0.004330214112997055,-0.00830812193453312
1761466500171192000,8.519192138671874,0.02856764942407608,0.001991864060983062,-0.012254660949110985
1761466500181177000,8.529177001953125,0.023709343746304512,0.0057578785344958305,-0.018702201545238495
1761466500191162000,8.539162109375,0.024699240922927856,0.012553200125694275,-0.023352347314357758
1761466500201146000,8.54914599609375,0.024033285677433014,0.01946890540421009,-0.018325354903936386
1761466500211131100,8.559131103515625,0.021326180547475815,0.02198505960404873,-0.009027192369103432
1761466500221115100,8.569115234375,0.01789415068924427,0.027884596958756447,0.00048601580783724785
1761466500231103200,8.579103271484374,0.01308341696858406,0.026112530380487442,0.002435716101899743
1761466500241088300,8.589088134765625,0.011233557015657425,0.01634383015334606,-0.0074727884493768215
1761466500251072300,8.599072265625,0.015246141701936722,0.008559144102036953,-0.020571812987327576
1761466500261057000,8.60905712890625,0.019133994355797768,0.005972506478428841,-0.03292696923017502
1761466500271042000,8.6190419921875,0.01902267523109913,0.015058678574860096,-0.03343243896961212
1761466500281026000,8.629026123046875,0.0232541561126709,0.01736081950366497,-0.02227552980184555
1761466500291011000,8.639010986328126,0.02103281393647194,0.019969118759036064,-0.014914819970726967
1761466500300996000,8.64899609375,0.015007018111646175,0.027748243883252144,-0.007797480560839176
1761466500310980000,8.65897998046875,0.016214493662118912,0.032643936574459076,0.0006181085482239723
1761466500320965000,8.668965087890625,0.013448081910610199,0.03939465805888176,0.009016502648591995
1761466500330949000,8.67894921875,0.008861852809786797,0.040230892598629,0.010523851960897446
1761466500340934100,8.68893408203125,0.005406058859080076,0.04084896668791771,0.006811616010963917
1761466500350919000,8.6989189453125,0.005215642973780632,0.03487256541848183,-0.002268964657559991
1761466500360903000,8.70890283203125,0.007117785979062319,0.030033938586711884,-0.007995475083589554
1761466500370888200,8.71888818359375,0.009419555775821209,0.029372144490480423,-0.008766725659370422
1761466500380872000,8.728871826171876,0.012804447673261166,0.029397346079349518,-0.0018578091403469443
1761466500390857200,8.738857177734374,0.013385282829403877,0.026909150183200836,0.00037258840166032314
1761466500400842200,8.74884228515625,0.013159864582121372,0.02372570149600506,0.0027572945691645145
1761466500410826200,8.758826171875,0.009122245945036411,0.018166352063417435,0.0004981351085007191
1761466500420811300,8.768811279296875,0.006750243250280619,0.010813945904374123,-0.00800394732505083
1761466500430795300,8.778795166015625,0.0024995720013976097,0.0012105866335332394,-0.011815197765827179
1761466500440780300,8.7887802734375,0.0009025265462696552,0.00007680011913180351,-0.014936518855392933
1761466500450765000,8.79876513671875,0.0006290199235081673,0.005872371606528759,-0.012212105095386505
1761466500460749000,8.8087490234375,-0.000021191313862800598,0.00755169615149498,-0.011139662936329842
1761466500470734000,8.818734130859376,0.005372242536395788,0.011426062323153019,-0.0006990055553615093
1761466500480718000,8.828718017578124,0.006365214474499226,0.01557086780667305,0.004494780208915472
1761466500490703000,8.838703125,0.008629700168967247,0.013927696272730827,0.006088682450354099
1761466500500688100,8.848688232421875,0.006552508566528559,0.015275038778781891,0.009852854534983635
1761466500510672100,8.858672119140625,0.0029580402188003063,0.012427054345607758,0.00699475035071373
1761466500520657200,8.8686572265625,-0.0028835288248956203,0.01183614693582058,0.007156733423471451
1761466500530641200,8.87864111328125,-0.003200178500264883,0.015121422708034515,0.006358051672577858
1761466500540626200,8.888626220703125,-0.004998355638235807,0.015561312437057495,0.00880541279911995
1761466500550611000,8.89861083984375,-0.005758421961218119,0.010966826230287552,0.005777664482593536
1761466500560595000,8.908594970703126,-0.004399565514177084,0.0038695759139955044,-0.0031773862428963184
1761466500570580000,8.918580078125,-0.005000374745577574,-0.0004740399308502674,-0.012730411253869534
1761466500580565200,8.928565185546875,-0.005525597371160984,-0.0030688466504216194,-0.013579808175563812
1761466500590549200,8.93854931640625,-0.001825401559472084,0.001356261782348156,-0.01338672824203968
1761466500600534300,8.9485341796875,-0.0037634107284247875,0.008581457659602165,-0.00624434556812048
1761466500610518300,8.958518310546875,-0.005870770197361708,0.016033781692385674,-0.0010344039183109999
1761466500620503300,8.96850341796875,-0.005856894887983799,0.016783954575657845,-0.0007521598599851131
1761466500630488000,8.978488037109376,-0.005187909118831158,0.011813163757324219,-0.006928296759724617
1761466500640472000,8.98847216796875,-0.00723830284550786,0.0034929560497403145,-0.015805892646312714
1761466500650457000,8.99845703125,-0.004728806670755148,0.0017826738767325878,-0.02450164593756199
1761466500660441000,9.008441162109374,-0.005729569587856531,0.006239128299057484,-0.030939938500523567
1761466500670426000,9.018426025390625,-0.0014067264273762703,0.007155521772801876,-0.030082667246460915
1761466500680411100,9.0284111328125,-0.0008466797880828381,0.008641136810183525,-0.026760507375001907
1761466500690395100,9.03839501953125,0.004275111481547356,0.015401038341224194,0.005499160848557949
1761466500700380200,9.048380126953125,0.003495860379189253,0.043617695569992065,0.0027898442931473255
1761466500710364200,9.0583642578125,0.0021088861394673586,0.03864344581961632,-0.0035010746214538813
1761466500720349200,9.06834912109375,0.00280564371496439,0.03480720892548561,-0.01611321046948433
1761466500730334000,9.078333984375,0.0015978999435901642,0.03315498307347298,-0.022410523146390915
1761466500740318000,9.08831787109375,0.004702806938439608,0.031425051391124725,-0.02765694260597229
1761466500750303000,9.098302978515624,0.011228883638978004,0.0271229799836874,-0.027380771934986115
1761466500760287000,9.108286865234374,0.009626835584640503,0.022972946986556053,-0.02049567736685276
1761466500770272000,9.11827197265625,0.014695895835757256,0.02145414613187313,-0.01396267767995596
1761466500780257300,9.12825732421875,0.015158592723309994,0.01628878526389599,-0.018429530784487724
1761466500790241000,9.138240966796875,0.015817992389202118,0.00811048410832882,-0.02633938565850258
1761466500800226300,9.148226318359375,0.017600418999791145,0.006674653850495815,-0.035217441618442535
1761466500810210300,9.158210205078126,0.013566263020038605,0.009149795398116112,-0.0324389673769474
1761466500820195000,9.168195068359376,0.019792430102825165,0.012051711790263653,-0.016283005475997925
1761466500830180000,9.17818017578125,0.021043581888079643,0.03253275156021118,0.0043953764252364635
1761466500840164000,9.1881640625,0.02188194915652275,0.03810698166489601,0.012132959440350533
1761466500850149000,9.198149169921875,0.016235249117016792,0.03916798532009125,0.011748665943741798
1761466500860133000,9.208133056640625,0.013948160223662853,0.03728385642170906,0.0028260042890906334
1761466500870118100,9.2181181640625,0.014056018553674221,0.03421935811638832,-0.011268775910139084
1761466500880103200,9.228103271484375,0.01802145317196846,0.022427724674344063,-0.014508500695228577
1761466500890087200,9.238087158203125,0.020340532064437866,0.017150139436125755,-0.020216187462210655
1761466500900072200,9.248072265625,0.020662419497966766,0.013516465201973915,-0.014526629820466042
1761466500910056200,9.25805615234375,0.02947215735912323,0.008780833333730698,-0.008325992152094841
1761466500920041000,9.268041015625,0.028800636529922485,0.00713523430749774,0.0031420739833265543
1761466500930026000,9.27802587890625,0.0317239873111248,-0.0027149992529302835,0.00927586667239666
1761466500940010000,9.288010009765625,0.024632077664136887,-0.012457961216568947,0.006054442375898361
1761466500949995000,9.2979951171875,0.022443758323788643,-0.009170022793114185,0.0009417058899998665
1761466500959979000,9.30797900390625,0.01810380443930626,-0.0024219248443841934,-0.005201718304306269
1761466500969964000,9.317964111328125,0.016323482617735863,-0.003325002733618021,-0.00940791517496109
1761466500979949000,9.327948974609376,0.01730920746922493,-0.0017934750067070127,-0.019413482397794724
1761466500989933000,9.33793310546875,0.02091512829065323,-0.005997807718813419,-0.025269508361816406
1761466500999918300,9.34791845703125,0.02204570360481739,-0.010239706374704838,-0.03749343752861023
1761466501009903000,9.357903076171874,0.02836245484650135,-0.014758291654288769,-0.047751400619745255
1761466501019887000,9.36788720703125,0.027203569188714027,-0.005192079581320286,-0.05181467533111572
1761466501029872000,9.3778720703125,0.0304062869399786,-0.0023419647477567196,-0.052487656474113464
1761466501039856000,9.387856201171875,0.02175496146082878,-0.006839600391685963,-0.045499637722969055
1761466501049841200,9.397841064453125,0.021549098193645477,-0.002759904135018587,-0.03838713467121124
1761466501059826200,9.407826171875,0.017515985295176506,0.006332535296678543,-0.02486029453575611
1761466501069810200,9.41781005859375,0.014599024318158627,0.0038427456747740507,-0.018848739564418793
1761466501079795200,9.427795166015626,0.01306130364537239,-0.007463765796273947,-0.019203543663024902
1761466501089779200,9.437779296875,0.009820768609642982,-0.00039653503336012363,-0.011278243735432625
1761466501099764200,9.44776416015625,0.010934298858046532,0.017145691439509392,-0.0048576463013887405
1761466501109749000,9.4577490234375,0.006519843824207783,0.01912814937531948,-0.00207144720479846
1761466501119733000,9.46773291015625,0.006861019413918257,0.004879028536379337,-0.010826976969838142
1761466501129718000,9.477718017578125,0.0029365853406488895,-0.01626274175941944,-0.01742415875196457
1761466501139702000,9.487701904296875,0.006197637412697077,-0.02176423743367195,-0.023765334859490395
1761466501149687000,9.49768701171875,0.002806900767609477,-0.013759041205048561,-0.022122696042060852
1761466501159672000,9.507672119140626,0.0001492961309850216,0.0064477743580937386,-0.019377999007701874
1761466501169656000,9.517656005859376,0.005558175966143608,0.009349022060632706,-0.014104408212006092
1761466501179641000,9.52764111328125,0.00021729525178670883,-0.001784216845408082,-0.014337307773530483
1761466501189632500,9.537632568359374,0.0026599466800689697,-0.010454404167830944,-0.015020675025880337
1761466501199617300,9.5476171875,-0.000912811141461134,-0.015432087704539299,-0.013331393711268902
1761466501209602600,9.5576025390625,-0.0005229241214692593,-0.019260115921497345,-0.009774742648005486
1761466501219586300,9.56758642578125,0.003523876192048192,-0.027171066030859947,-0.009008322842419147
1761466501229571600,9.577571533203125,-0.00403390871360898,-0.028184665367007256,-0.006442633457481861
1761466501239555600,9.5875556640625,0.00003250967711210251,-0.010964642278850079,-0.006569105200469494
1761466501249540600,9.59754052734375,0.0003041522577404976,-0.011443744413554668,-0.0027906119357794523
1761466501259525600,9.607525634765626,0.0008091260679066181,-0.018490074202418327,-0.010603691451251507
1761466501269509600,9.617509521484376,0.004645143635571003,-0.023159926757216454,-0.012625562958419323
1761466501279494400,9.627494384765624,0.0019395744893699884,-0.022592391818761826,-0.014134492725133896
1761466501289478700,9.637478759765624,-0.00011904910206794739,-0.027462515980005264,-0.014314255677163601
1761466501299463400,9.64746337890625,-0.0037532751448452473,-0.02807854861021042,-0.01712527498602867
1761466501309448400,9.657448486328125,-0.0010238015092909336,-0.016612041741609573,-0.017385730519890785
1761466501319432400,9.667432373046875,0.0011917338706552982,-0.004708695225417614,-0.016055652871727943
1761466501329417500,9.67741748046875,0.0035299891605973244,-0.010815057903528214,-0.02001390978693962
1761466501339401500,9.6874013671875,0.0007679732516407967,-0.016874097287654877,-0.02800961397588253
1761466501349386500,9.697386474609376,-0.0004986259154975414,-0.024497929960489273,-0.03304272145032883
1761466501359371500,9.70737158203125,0.0007441062480211258,-0.017943456768989563,-0.03161054104566574
1761466501369355500,9.71735546875,-0.004416567273437977,-0.019739491865038872,-0.03515680879354477
1761466501379340300,9.72734033203125,-0.001194941345602274,-0.010783547535538673,-0.03533657267689705
1761466501389324500,9.737324462890625,0.0000833761878311634,-0.0003567389212548733,-0.03304944932460785
1761466501399309300,9.747309326171875,-0.000621892511844635,-0.00008348282426595688,-0.026756377890706062
1761466501409294600,9.757294677734375,0.0005086190067231655,-0.003638536436483264,-0.023998409509658813
1761466501419278300,9.7672783203125,-0.005049245432019234,-0.0025549663696438074,-0.02022692561149597
1761466501429263600,9.777263671875,-0.010551068931818008,-0.0013810449745506048,-0.01992092840373516
1761466501439247600,9.78724755859375,-0.0133857112377882,-0.011055815033614635,-0.019768640398979187
1761466501449232600,9.797232666015624,-0.009431984275579453,-0.016278274357318878,-0.019170761108398438
1761466501459216600,9.807216552734374,-0.009623832069337368,-0.010929321870207787,-0.012790635228157043
1761466501469201700,9.81720166015625,-0.005062103271484375,-0.0061689214780926704,-0.009561819024384022
1761466501479186400,9.8271865234375,-0.003439160995185375,0.0033548695500940084,-0.003320095594972372
1761466501489170400,9.83717041015625,-0.004244234412908554,0.0023372757714241743,-0.0029962551780045033
1761466501499155500,9.847155517578125,-0.007167016621679068,0.0014774720184504986,-0.0014975864905864
1761466501509140500,9.857140380859375,-0.008717775344848633,0.003818657249212265,-0.007375715766102076
1761466501519124500,9.86712451171875,-0.006876707077026367,0.006101216189563274,-0.010604307055473328
1761466501529109500,9.877109619140626,-0.006922779604792595,0.0016180507373064756,-0.012922056019306183
1761466501539093500,9.887093505859376,-0.006877226755023003,0.0025881922338157892,-0.013966024853289127
1761466501549078500,9.89707861328125,-0.006714240647852421,0.00415120180696249,-0.011673309840261936
1761466501559062500,9.9070625,-0.003652391489595175,-0.0005911896005272865,-0.01127289142459631
1761466501569047600,9.917047607421875,-0.006797052454203367,0.002112185349687934,-0.0084470110014081
1761466501579032300,9.9270322265625,-0.0024179783649742603,0.007244385778903961,-0.005572101566940546
1761466501589016300,9.937016357421875,-0.008524606004357338,0.010827935300767422,-0.0072501590475440025
1761466501599001300,9.94700146484375,-0.008153057657182217,0.006408176384866238,-0.010982018895447254
1761466501608985300,9.9569853515625,-0.006121598184108734,0.003388950601220131,-0.013751973398029804
1761466501618970400,9.966970458984376,-0.007011894136667252,0.00285802548751235,-0.016472041606903076
1761466501628955600,9.97695556640625,-0.004118636250495911,-0.0009622790385037661,-0.016867520287632942
1761466501638939400,9.986939453125,-0.0021013165824115276,0.0049932776018977165,-0.01687927544116974
1761466501648924700,9.996924560546875,0.0017522778362035751,0.015342853963375092,-0.009869303554296494
1761466501658908700,10.00690869140625,0.005068636499345303,0.01575213484466076,-0.0075361644849181175
1761466501668893700,10.016893798828125,0.004659308586269617,0.009333385154604912,-0.0075572035275399685
1761466501678878500,10.02687841796875,0.00587553670629859,0.004454717040061951,-0.0089146438986063
1761466501688862500,10.036862548828125,0.0048086741007864475,0.010818872600793839,-0.008024349808692932
1761466501698847500,10.046847412109376,0.003975484520196915,0.013958117924630642,-0.0031588582787662745
1761466501708831500,10.05683154296875,0.004863648675382137,0.012519477866590023,0.001516320975497365
1761466501718816500,10.06681640625,0.005985409952700138,0.018618565052747726,0.008600013330578804
1761466501728801500,10.076801513671874,0.0075167277827858925,0.014681880362331867,0.012844560667872429
1761466501738785500,10.08678564453125,0.004937076475471258,0.009854032658040524,0.023123476654291153
1761466501748770600,10.0967705078125,0.009689221158623695,0.011270834133028984,0.030225859954953194
1761466501758754600,10.106754638671875,0.009728711098432541,0.015646187588572502,0.038449227809906006
1761466501768739600,10.116739501953125,0.006920674350112677,0.019039588049054146,0.043140385299921036
1761466501778724400,10.126724365234375,0.005575027782469988,0.014278690330684185,0.04591326788067818
1761466501788708400,10.136708251953126,0.004260491579771042,0.018089141696691513,0.04627625644207001
1761466501798693400,10.146693359375,0.0030310903675854206,0.015019522979855537,0.041075073182582855
1761466501808677400,10.156677490234374,0.0035751741379499435,0.010293211787939072,0.039877716451883316
1761466501818662400,10.166662353515624,0.009724969044327736,0.008755041286349297,0.03026161715388298
1761466501828647400,10.1766474609375,0.010157465934753418,0.008922288194298744,0.033541835844516754
1761466501838631400,10.18663134765625,0.010398698970675468,0.004609106108546257,0.03402261808514595
1761466501848616700,10.19661669921875,0.007127805147320032,0.003569939872249961,0.04256284236907959
1761466501858600400,10.206600341796875,0.0077859871089458466,-0.002717715920880437,0.05040086805820465
1761466501868585500,10.21658544921875,0.007467206567525864,-0.0005208745133131742,0.061694271862506866
1761466501878570500,10.226570556640626,0.003453645156696439,0.003458634251728654,0.06235546991229057
1761466501888554500,10.236554443359376,0.00301688676699996,0.0072493776679039,0.06318584829568863
1761466501898539500,10.24653955078125,0.0015816707164049149,0.002196007641032338,0.08404502272605896
1761466501908523500,10.2565234375,0.008947707712650299,0.028178339824080467,0.1088116243481636
1761466501918508500,10.266508544921875,0.011125425808131695,0.024105917662382126,0.07199352234601974
1761466501928492500,10.276492431640625,0.0020632215309888124,-0.010909325443208218,0.048515889793634415
1761466501938477600,10.2864775390625,-0.004390303511172533,-0.00913148932158947,0.028874441981315613
1761466501948462600,10.296462646484375,0.0016798395663499832,-0.004540199413895607,0.024554794654250145
1761466501958446600,10.306446533203125,0.004844106268137693,-0.014160876162350178,0.028155647218227386
1761466501968431400,10.316431396484376,0.004718138836324215,-0.0104407062754035,0.03842133283615112
1761466501978415600,10.32641552734375,0.0014385455287992954,-0.01524094957858324,0.04316161572933197
1761466501988400400,10.336400390625,0.0026191247161477804,-0.021956907585263252,0.04840325191617012
1761466501998385400,10.346385498046875,0.002947935601696372,-0.023248646408319473,0.0494963563978672
1761466502008369400,10.356369384765625,0.0007156739011406898,-0.021938372403383255,0.047404710203409195
1761466502018354400,10.3663544921875,0.0033460394479334354,-0.017528997734189034,0.04228954762220383
1761466502028338400,10.37633837890625,0.0031116812024265528,-0.016029903665184975,0.03959869220852852
1761466502038323500,10.386323486328125,0.0007452862337231636,-0.013739747926592827,0.03588370233774185
1761466502048308500,10.39630859375,0.0026300055906176567,-0.01448463462293148,0.025540251284837723
1761466502058292500,10.40629248046875,0.005478775594383478,-0.007957286201417446,0.017129918560385704
1761466502068277500,10.416277587890624,0.007073742803186178,0.000051904236897826195,0.010199042037129402
1761466502078261200,10.42626123046875,0.01111653633415699,-0.0023805596865713596,0.009959436021745205
1761466502088246500,10.43624658203125,0.01719413511455059,0.0012724981643259525,0.014065497554838657
1761466502098231600,10.4462314453125,0.017299428582191467,0.0081912437453866,0.021842025220394135
1761466502108215600,10.456215576171875,0.010960306972265244,0.014889360405504704,0.02150753326714039
1761466502118200600,10.46620068359375,0.010416416451334953,0.02076706476509571,0.023057084530591965
1761466502128184600,10.4761845703125,0.010480065830051899,0.03539581224322319,0.023799574002623558
1761466502138169600,10.486169677734376,0.008440337143838406,0.06619627773761749,0.0196649469435215
1761466502148153600,10.496153564453126,0.009600143879652023,0.08765522390604019,0.011762816458940506
1761466502158138600,10.506138671875,0.01759057678282261,0.0813133716583252,0.0007130235899239779
1761466502168123400,10.516123291015624,0.02252035215497017,0.058096468448638916,-0.009893281385302544
1761466502178107400,10.526107421875,0.024451512843370438,0.043484512716531754,-0.017477158457040787
1761466502188088300,10.53608837890625,0.023788120597600937,0.04597776383161545,-0.018893161788582802
1761466502198072300,10.546072265625,0.02658209390938282,0.05750134214758873,-0.012418394908308983
1761466502208057300,10.556057373046874,0.02302704006433487,0.06383034586906433,-0.00686250813305378
1761466502218042400,10.56604248046875,0.019769802689552307,0.05155732482671738,-0.004470841959118843
1761466502228026400,10.5760263671875,0.015953492373228073,0.04320831596851349,-0.00017170142382383347
1761466502238011600,10.58601171875,0.013714877888560295,0.025662098079919815,-0.0024659917689859867
1761466502247995400,10.595995361328125,0.011598996818065643,0.01052495650947094,-0.012351912446320057
1761466502257980700,10.605980712890625,0.008930368348956108,-0.0025791553780436516,-0.020074309781193733
1761466502267965400,10.61596533203125,0.007170285563915968,-0.012726065702736378,-0.03155440092086792
1761466502277949700,10.62594970703125,0.00809784047305584,-0.031046446412801743,-0.04341820999979973
1761466502287934500,10.6359345703125,0.006215251982212067,-0.04096565768122673,-0.05076267570257187
1761466502297918500,10.64591845703125,0.004792286083102226,-0.04611170291900635,-0.051041796803474426
1761466502307903500,10.655903564453125,0.001381841953843832,-0.05827702581882477,-0.04908091574907303
1761466502317887500,10.665887451171875,-0.00040727946907281876,-0.05484304949641228,-0.041223421692848206
1761466502327872500,10.67587255859375,-0.00199319189414382,-0.045743562281131744,-0.028380325064063072
1761466502337857500,10.685857421875,-0.004983985330909491,-0.03591381758451462,-0.010274275206029415
1761466502347841500,10.695841552734375,0.0013346308842301369,-0.023509083315730095,0.0024923861492425203
1761466502357826600,10.70582666015625,0.004655136726796627,-0.021213660016655922,0.01921788789331913
1761466502367810600,10.715810546875,0.012017445638775826,-0.017741961404681206,0.030907033011317253
1761466502377795600,10.725795654296874,0.014543997123837471,0.0002558508422225714,0.03737574443221092
1761466502387780400,10.7357802734375,-0.004825972020626068,0.030382327735424042,0.0352068655192852
1761466502397764400,10.745764404296875,0.014426294714212418,0.06876025348901749,0.03590584546327591
1761466502407749400,10.755749267578125,0.018391741439700127,0.028410963714122772,0.01682988926768303
1761466502417733400,10.7657333984375,0.006631551776081324,-0.00011816318146884441,-0.015357622876763344
1761466502427718400,10.775718505859375,0.002294593956321478,0.0006858448032289743,-0.03747810423374176
1761466502437703400,10.785703369140625,-0.005841943435370922,0.004813016392290592,-0.04119313880801201
1761466502447687400,10.7956875,-0.005492004565894604,-0.0011031960602849722,-0.04253643751144409
1761466502457672700,10.805672607421876,-0.008620381355285645,-0.010202929377555847,-0.032445698976516724
1761466502467656400,10.815656494140624,-0.005886114202439785,-0.016995321959257126,-0.017269408330321312
1761466502477641500,10.825641357421874,-0.009756039828062057,-0.01048970129340887,-0.0067682405933737755
1761466502487626500,10.83562646484375,-0.006970107089728117,-0.004085863940417767,-0.003913864493370056
1761466502497610500,10.845610595703125,-0.004905243404209614,0.0031004769261926413,-0.008670725859701633
1761466502507595500,10.855595458984375,-0.002224772237241268,-0.002928120782598853,-0.01883574388921261
1761466502517579500,10.86557958984375,-0.0029995273798704147,-0.009736666455864906,-0.0328524224460125
1761466502527564500,10.875564453125,-0.0021606320515275,-0.01764359325170517,-0.04604678973555565
1761466502537548500,10.885548583984376,-0.0010574203915894032,-0.020725812762975693,-0.05209815502166748
1761466502547533600,10.895533447265626,-0.00079776206985116,-0.019534580409526825,-0.05317912995815277
1761466502557518600,10.9055185546875,-0.00161659624427557,-0.006390334106981754,-0.0488789826631546
1761466502567502600,10.915502685546874,-0.0009358925744891167,-0.00009435485117137432,-0.04882758483290672
1761466502577487400,10.9254873046875,-0.003125190269201994,0.002537863329052925,-0.04388427734375
1761466502587471400,10.935471435546875,-0.003439177293330431,0.008796291425824165,-0.03944745659828186
1761466502597456400,10.945456298828125,-0.004048327915370464,0.01559395156800747,-0.03468149155378342
1761466502607441400,10.95544140625,-0.006528529338538647,0.028574731200933456,-0.032374925911426544
1761466502617425400,10.96542529296875,-0.005168925039470196,0.03161429241299629,-0.03679810091853142
1761466502627410400,10.975410400390626,-0.0024604899808764458,0.02581419236958027,-0.03524041920900345
1761466502637394400,10.98539453125,0.0019861997570842505,0.022071296349167824,-0.03628367558121681
1761466502647379500,10.99537939453125,0.0020269460510462523,0.019710402935743332,-0.034617867320775986
1761466502657363500,11.005363525390624,0.0002726432867348194,0.021207589656114578,-0.03312920406460762
1761466502667348500,11.015348388671875,0.00017091026529669762,0.016681812703609467,-0.029007431119680405
1761466502677333500,11.02533349609375,-0.0009503122419118881,0.01563611626625061,-0.025078868493437767
1761466502687317200,11.035317138671875,-0.004168742801994085,0.016343718394637108,-0.021504640579223633
1761466502697302500,11.045302490234375,-0.004105765838176012,0.007965652272105217,-0.02211640030145645
1761466502707286500,11.05528662109375,-0.0019350233487784863,-0.00865966361016035,-0.02866724319756031
1761466502717271600,11.065271484375,-0.0012421179562807083,-0.011579747311770916,-0.033193204551935196
1761466502727256600,11.075256591796874,-0.0066813575103878975,-0.005808411166071892,-0.03231329843401909
1761466502737240600,11.085240478515624,-0.0046456619165837765,-0.003846157109364867,-0.025977862998843193
1761466502747225600,11.0952255859375,-0.007812426891177893,-0.0041771880351006985,-0.021114930510520935
1761466502757209600,11.105209716796875,-0.010693931952118874,0.008212772198021412,-0.011651530861854553
1761466502767194600,11.115194580078125,-0.010477950796484947,0.019077938050031662,-0.006296446546912193
1761466502777178600,11.1251787109375,-0.00970594771206379,0.01622496359050274,-0.0057115391828119755
1761466502787163400,11.135163330078125,-0.016050929203629494,0.009961741045117378,-0.010779800824820995
1761466502797148400,11.1451484375,-0.015680663287639618,0.001222528051584959,-0.011082656681537628
1761466502807132400,11.15513232421875,-0.014805814251303673,0.00031172693707048893,-0.01759088970720768
1761466502817117400,11.165117431640626,-0.012107577174901962,0.001939941430464387,-0.019603485241532326
1761466502827101400,11.175101318359374,-0.012632487341761589,0.009549125097692013,-0.023631250485777855
1761466502837086500,11.18508642578125,-0.01493773516267538,0.011757363565266132,-0.019276771694421768
1761466502847071500,11.195071533203125,-0.022514160722494125,0.002870660973712802,-0.014247126877307892
1761466502857055500,11.205055419921875,-0.019913390278816223,0.00017538038082420826,-0.012058165855705738
1761466502867040500,11.21504052734375,-0.01748085953295231,0.0067925360053777695,-0.012739668600261211
1761466502877024500,11.2250244140625,-0.017624277621507645,0.008570434525609016,-0.011788416653871536
1761466502887009300,11.23500927734375,-0.018231743946671486,0.0012592589482665062,-0.008838700130581856
1761466502896993300,11.2449931640625,-0.018950343132019043,-0.0008654533885419369,-0.007843254134058952
1761466502906978600,11.254978515625,-0.015478912740945816,0.0031639093067497015,-0.0035422490909695625
1761466502916963600,11.264963623046874,-0.012816685251891613,0.0007533370517194271,-0.0015143889468163252
1761466502926947600,11.274947509765624,-0.010942884720861912,0.007753455545753241,0.0016449189279228449
1761466502936932600,11.2849326171875,-0.009353525936603546,0.011858128011226654,0.008107814937829971
1761466502946916600,11.29491650390625,-0.008817963302135468,0.010544657707214355,0.013406706973910332
1761466502956901600,11.304901611328125,-0.011071192100644112,0.003072788007557392,0.015793589875102043
1761466502966886400,11.314886474609375,-0.013696003705263138,-0.0055201672948896885,0.016113968566060066
1761466502976870700,11.32487060546875,-0.013852575793862343,-0.009774867445230484,0.019381366670131683
1761466502986855400,11.33485546875,-0.01390157826244831,-0.016768328845500946,0.025524746626615524
1761466502996839400,11.34483935546875,-0.015106601640582085,-0.013853956013917923,0.026274768635630608
1761466503006824400,11.354824462890624,-0.012842915952205658,-0.013726124539971352,0.025059035047888756
1761466503016808400,11.364808349609374,-0.01470332220196724,-0.01950434222817421,0.028424249961972237
1761466503026793500,11.37479345703125,-0.00920016597956419,-0.024340644478797913,0.027038075029850006
1761466503036778500,11.384778564453125,-0.007885998114943504,-0.01742681860923767,0.029946239665150642
1761466503046762500,11.394762451171875,-0.008410108275711536,-0.01079927571117878,0.03159340098500252
1761466503056747500,11.40474755859375,-0.00441816495731473,-0.005024620797485113,0.03364097326993942
1761466503066731500,11.4147314453125,-0.007061352487653494,-0.009692609310150146,0.034440986812114716
1761466503076716500,11.424716552734376,-0.003479265607893467,-0.012811560183763504,0.03319849073886871
1761466503086701300,11.434701416015624,0.000825734343379736,-0.005264161620289087,0.03576843813061714
1761466503096685300,11.444685302734374,-0.0005042869597673416,0.000015001511201262474,0.032859981060028076
1761466503106670300,11.45467041015625,0.00035591423511505127,0.0020579122938215733,0.02818773128092289
1761466503116654300,11.464654296875,0.0010128682479262352,-0.0038715447299182415,0.02393154241144657
1761466503126639600,11.4746396484375,-0.0020508323796093464,-0.00844951905310154,0.019979942589998245
1761466503136623400,11.484623291015625,0.002301290398463607,-0.016065150499343872,0.01818331517279148
1761466503146608600,11.494608642578125,0.0013670534826815128,-0.016669156029820442,0.022169800475239754
1761466503156593700,11.50459375,-0.00023602042347192764,-0.011277382262051105,0.024895749986171722
1761466503166577700,11.51457763671875,0.003929696045815945,-0.0032540769316256046,0.029579713940620422
1761466503176562400,11.5245625,0.00046906573697924614,0.0032642153091728687,0.034742195159196854
1761466503186543400,11.53454345703125,0.006601792760193348,-0.0009827276226133108,0.030913369730114937
1761466503196528400,11.5445283203125,0.008020162582397461,-0.005145657807588577,0.025171449407935143
1761466503206512400,11.554512451171876,0.010691579431295395,-0.005312904249876738,0.022366343066096306
1761466503216497400,11.564497314453124,0.0025746405590325594,-0.0021353033371269703,0.028634805232286453
1761466503226482400,11.574482421875,0.007633847650140524,0.005971625447273254,0.036649059504270554
1761466503236466400,11.584466552734375,0.0020903293043375015,0.008636712096631527,0.04124200716614723
1761466503246451500,11.594451416015625,0.001979808323085308,0.011371511965990067,0.041869450360536575
1761466503256435500,11.604435546875,0.0051910243928432465,0.006910219788551331,0.04307056963443756
1761466503266420500,11.61442041015625,0.0030445163138210773,0.003150369506329298,0.03991525620222092
1761466503276404500,11.624404541015625,0.0026129581965506077,0.0017887235153466463,0.04225035011768341
1761466503286389500,11.634389404296876,-0.0024025733582675457,-0.0010358253493905067,0.03868730366230011
1761466503296374500,11.64437451171875,-0.0004952172748744488,-0.007753116078674793,0.03519510105252266
1761466503306358500,11.654358642578124,-0.0016971016302704811,-0.015455511398613453,0.0290562491863966
1761466503316343600,11.664343505859375,-0.005173708777874708,-0.017077438533306122,0.028552575036883354
1761466503326327600,11.67432763671875,-0.005269582848995924,-0.017297416925430298,0.02763192169368267
1761466503336312600,11.6843125,-0.007897112518548965,-0.014676675200462341,0.030234554782509804
1761466503346297600,11.694297607421875,-0.008084067143499851,-0.017292432487010956,0.03382449597120285
1761466503356281600,11.704281494140625,-0.010024655610322952,-0.019371485337615013,0.032767828553915024
1761466503366266400,11.714266357421875,-0.005321514327079058,-0.018364012241363525,0.03354733809828758
1761466503376250600,11.724250732421876,-0.010184332728385925,-0.014693278819322586,0.032258737832307816
1761466503386235400,11.7342353515625,-0.002015884965658188,-0.013543592765927315,0.039112113416194916
1761466503396219400,11.744219482421874,-0.005598170682787895,-0.009849422611296177,0.043916016817092896
1761466503406204400,11.754204345703124,-0.0050405049696564674,-0.01754276268184185,0.04761834442615509
1761466503416189400,11.764189453125,-0.007178223691880703,-0.019853852689266205,0.04961385205388069
1761466503426173400,11.77417333984375,-0.00806452427059412,-0.019803784787654877,0.04943275451660156
1761466503436158500,11.784158447265625,-0.00871023815125227,-0.015017545782029629,0.045135751366615295
1761466503446142500,11.794142578125,-0.005456920713186264,-0.013232428580522537,0.04160786420106888
1761466503456127500,11.80412744140625,-0.008163287304341793,-0.01436425931751728,0.029025772586464882
1761466503466111500,11.814111572265626,-0.009540141560137272,-0.015346964821219444,0.02239157073199749
1761466503476096500,11.824096435546876,-0.01115354709327221,-0.01726655848324299,0.01412832923233509
1761466503486081500,11.83408154296875,-0.015447895973920822,-0.017367225140333176,0.00895274244248867
1761466503496065300,11.844065185546874,-0.017728257924318314,-0.025886138901114464,0.020976388826966286
1761466503506050600,11.854050537109375,-0.003449719864875078,-0.030963987112045288,0.12766528129577637
1761466503516034600,11.86403466796875,-0.0021841228008270264,0.04389186203479767,0.09100686013698578
1761466503526019600,11.87401953125,-0.008514722809195518,0.0337769091129303,0.06151021644473076
1761466503536004600,11.884004638671875,-0.018968429416418076,0.011824474669992924,0.027114160358905792
1761466503545988600,11.893988525390625,-0.01934792846441269,0.0066315773874521255,-0.0032850229181349277
1761466503555973600,11.9039736328125,-0.014054803177714348,-0.008630102500319481,-0.023988336324691772
1761466503565957600,11.91395751953125,-0.005401127506047487,-0.013430982828140259,-0.026127386838197708
1761466503575942400,11.9239423828125,-0.0052980161271989346,-0.004947819747030735,-0.03240000456571579
1761466503585926700,11.9339267578125,-0.005675652530044317,-0.006505502853542566,-0.039589472115039825
1761466503595911400,11.943911376953125,0.0034117966424673796,0.0033859354443848133,-0.04523065313696861
1761466503605896400,11.953896484375,0.005506639368832111,-0.0019976447802037,-0.04027078300714493
1761466503615880400,11.96388037109375,0.014898903667926788,-0.014080576598644257,-0.024251241236925125
1761466503625865500,11.973865478515625,0.009767258539795876,-0.018449492752552032,-0.026854747906327248
